n_rows_raw_mean,n_rows_raw_std,n_rows_used_mean,n_rows_used_std,row_coverage_mean,row_coverage_std,sampling_hz_mean,sampling_hz_std,missing_ratio_before_fill_mean,missing_ratio_before_fill_std,acc_x_mean_mean,acc_x_mean_std,acc_y_mean_mean,acc_y_mean_std,acc_z_mean_mean,acc_z_mean_std,acc_x_std_mean,acc_x_std_std,acc_y_std_mean,acc_y_std_std,acc_z_std_mean,acc_z_std_std,acc_x_rms_mean,acc_x_rms_std,acc_y_rms_mean,acc_y_rms_std,acc_z_rms_mean,acc_z_rms_std,acc_x_range_mean,acc_x_range_std,acc_y_range_mean,acc_y_range_std,acc_z_range_mean,acc_z_range_std,acc_mag_mean_mean,acc_mag_mean_std,acc_mag_std_mean,acc_mag_std_std,acc_mag_rms_mean,acc_mag_rms_std,acc_mag_range_mean,acc_mag_range_std,gyro_mag_mean_mean,gyro_mag_mean_std,gyro_mag_std_mean,gyro_mag_std_std,gyro_mag_rms_mean,gyro_mag_rms_std,dominant_freq_hz_mean,dominant_freq_hz_std,tremor_band_power_4_6hz_mean,tremor_band_power_4_6hz_std,total_power_mean,total_power_std,age,height,weight,q_01,q_02,q_03,q_04,q_05,q_06,q_07,q_08,q_09,q_10,q_11,q_12,q_13,q_14,q_15,q_16,q_17,q_18,q_19,q_20,q_21,q_22,q_23,q_24,q_25,q_26,q_27,q_28,q_29,q_30
1303.2727272727273,466.78252117867703,1252.7727272727273,466.7828017211901,1.0,0.0,99.69834379836134,0.3662702711109204,0.0,0.0,-0.016340296463686944,0.06754596762286615,0.01685023052966425,0.03860837591736081,-0.005637755607183755,0.05382714091406544,0.07708041256004652,0.0955854189226098,0.10804792072582296,0.13774247579483892,0.13182389045671386,0.1930166380349248,0.08604104824731793,0.11149772155704933,0.11087038312919172,0.14171133852379714,0.134821033143226,0.19822188267032556,0.5365091606888985,0.655400686543576,0.8256231413985007,1.0151224369897158,1.0691898222960086,1.5686372148395518,0.15324699751230045,0.20959590055472596,0.12665659360133652,0.16182092399418038,0.20030329557296664,0.26353225738115293,0.959592238719559,1.3969197929129515,0.8338658079531654,1.3020461776702585,0.6173957281794366,0.8231531711682143,1.0530957211481993,1.5289746785284326,0.7224866443229181,2.1009212207711774,0.002884549581804716,0.0061793440356340485,20.105842912684064,33.417378252938214,72,178,74,0,0,0,0,1,0,1,1,1,0,0,0,0,0,0,0,0,0,0,0,0,0,0,0,1,0,0,0,0,0
1303.2727272727273,466.78252117867703,1252.8636363636363,466.7261147972826,1.0,0.0,99.72619266206355,0.38458132647227045,0.0,0.0,-0.0067306490431844005,0.1261073092893084,0.009016099748048168,0.024524534791358084,0.021708426706701554,0.04486553811556585,0.10318505991275835,0.1271817268473758,0.08708994504292225,0.10856007168186069,0.1124942345650358,0.1447288142785218,0.1242073236303905,0.16458970271366707,0.08831380980621796,0.11057480468293383,0.1162903191786731,0.1500271852567424,0.7591223786851097,0.9376123085165534,0.634338129634827,0.653212557248702,0.7588670161586614,0.8497203884261287,0.14971877915056067,0.20314386991044842,0.11951960879037168,0.14368623222307003,0.19370967885487325,0.2470115001637326,0.7807518247870502,0.9710089296934517,0.9864776905480088,1.39703846684425,0.8500664280552914,1.0373745323239896,1.3177647914801052,1.7272192838096556,0.3850412959573473,0.29677737441540875,0.0022570210156800377,0.004845667029186347,16.583014453998565,27.608956883678797,48,172,79,0,0,1,1,1,0,0,1,1,0,0,1,1,0,1,1,0,1,0,0,0,1,1,0,0,1,0,0,1,0
1303.2727272727273,466.78252117867703,1252.8181818181818,466.7543084060224,1.0,0.0,99.69383444492524,0.36063111243633433,0.0,0.0,-0.00027617374530509444,0.04718943638142241,0.02287985887976066,0.05630842158028668,0.018416111606160128,0.06407024673884391,0.07569230815837319,0.0882395682114858,0.0886344536798215,0.10662914955395605,0.12459628294751296,0.1926645761544589,0.08234530598742454,0.09432789957166422,0.09474390690983604,0.1178774794170995,0.13212131634230262,0.19874957557470774,0.4429459971449244,0.4661762574359193,0.5916856412636203,0.6311385113009016,0.8057358053803576,1.2069211657396546,0.16056877109465684,0.2127736569700215,0.09514661657240729,0.12388620252099106,0.18872083360798386,0.24449436661445947,0.6696563378866155,0.9718007397183067,0.8512239999101027,1.1589212057425906,0.593987995636806,0.7005601267122625,1.0521344221814917,1.3423889090215608,0.5794557302340132,0.9135316393422119,0.0011299912559532773,0.0021887415448401627,11.606266787428156,24.17866796825576,64,170,79,1,0,0,0,0,0,0,0,0,0,0,0,0,0,0,0,0,0,0,0,0,0,0,0,0,0,0,0,0,0
1303.2727272727273,466.78252117867703,1252.7727272727273,466.7828017211901,1.0,0.0,99.68973218747011,0.3707704531008859,0.0,0.0,-0.007937563112654323,0.030921000632236847,0.006050667452920274,0.010059577070746398,0.006283118545930327,0.017856035533991198,0.06423286120626702,0.05460699078163932,0.09310109497596936,0.08742976798496642,0.08019770390000044,0.08254323920763325,0.06752532342194001,0.05951651091261091,0.09348706320662727,0.08770172469171887,0.08138553098323982,0.08341889475564808,0.40825625067466226,0.3370837664703575,0.6910403497704701,0.662018879022666,0.5629789088518959,0.5562901683953382,0.12239290551461864,0.11618879335451132,0.07451279053847111,0.06375379575553286,0.1453578973827765,0.13011259168254763,0.5292056809056912,0.5199340512989691,0.694895095762304,0.8115761476978204,0.4805112711891832,0.4761796574236617,0.8638306829839949,0.9224672164448072,1.3219215372662259,2.9438129868032146,0.00046399963090052804,0.0007764710731556011,4.7808095576031056,6.142486939236418,48,161,68,0,0,0,0,0,0,0,0,0,0,0,0,1,0,0,1,0,0,1,1,0,0,0,0,0,1,0,1,0,0
1303.2727272727273,466.78252117867703,1252.8181818181818,466.7543084060225,1.0,0.0,99.6992256197872,0.3653016527888637,0.0,0.0,0.007022758644993691,0.08798051507515153,0.019117740977476413,0.0397366265923226,0.006891981307277373,0.034358338322858346,0.07006521111654375,0.0846266035228073,0.11926790811911246,0.1645045209641494,0.1120763782545564,0.14313217747192314,0.08693510417467064,0.11030233390678953,0.12148722889217148,0.1685847624712491,0.11412542986936214,0.1455920777906929,0.5229330832137637,0.6239092414702775,0.7489318971853351,0.8980798233660964,0.7339348348786882,0.8675111523943226,0.16405165954963954,0.22496587951513825,0.0938284642549529,0.10393384547249825,0.19313465576401362,0.2444005874289358,0.7058796828617949,0.8316957388056904,0.9712068779750606,1.4407097761736303,0.6556259934172298,0.8317899890173157,1.187863944678696,1.6512445352065759,1.5343725768192045,3.3918573336301274,0.0018833913555167774,0.0036869271172653975,9.327708522233396,12.791895115967726,66,178,108,0,1,0,0,0,0,0,1,1,0,0,0,0,0,0,0,0,0,1,0,0,0,1,0,1,0,0,1,0,0
1303.2727272727273,466.78252117867703,1252.7727272727273,466.7828017211901,1.0,0.0,99.70570999970613,0.37587044006135,0.0,0.0,0.0006235323972037609,0.07687387034839174,0.01295305376634389,0.023421771835485064,0.004074557093117332,0.025542438168433813,0.06829338637685196,0.07523282412231291,0.06862151336638042,0.0801975848644921,0.09687987215708076,0.1162242850820601,0.08270253938682647,0.09633206440038948,0.07063677080771298,0.0827669017443737,0.09828679086369162,0.11775524844276807,0.43312903764292743,0.4515984956995201,0.5135840480666259,0.5481907877754695,0.6830857164425002,0.7409017934120006,0.11622388034166418,0.14851883307742264,0.08611451419457711,0.09245656210008422,0.14904446608998742,0.17098923839307992,0.540300169087363,0.5915495040794451,0.7612746483776192,1.0427140975359273,0.6534878747546826,0.8031809898066411,1.021304748699237,1.301159209362048,0.5948427568584068,0.6056481629767927,0.000860097876443194,0.001576973268728289,7.601047819795583,9.493423721348158,48,172,73,0,0,0,0,0,0,0,0,0,0,0,0,0,0,0,0,0,0,0,0,0,0,0,0,0,0,0,0,0,0
1303.2727272727273,466.78252117867703,1252.7727272727273,466.78280172119014,1.0,0.0,100.14431184835611,0.6165054790183796,0.0,0.0,-0.006613742199336748,0.07274460856920498,-0.011620487411441298,0.06223437378032807,0.022090103574604607,0.06654256210914153,0.07068288518580304,0.07855409381901217,0.09764925850729438,0.13814904059522662,0.11188920482785605,0.15351103165994373,0.08165912139683941,0.09871686928229512,0.10591553848292096,0.14596954922837663,0.11710691683917653,0.1649711733448819,0.47296764671557256,0.4402179901119911,0.7954985337127927,0.9963230421653099,0.8200856001807828,0.9825083974749802,0.14258438080641508,0.20323281466738535,0.10733258810890792,0.12934969880568228,0.18207674541588872,0.23799608012627166,0.8182846932532484,1.0226925787831305,0.8703133970102012,1.3461897572121126,0.5962822256062793,0.7103684144245483,1.0776327799510899,1.5051108548003604,0.4930039816056734,0.7401922571292512,0.0035980230631613513,0.008268243560249567,13.475420295069481,23.63934530962283,70,170,70,0,0,0,0,0,0,0,0,1,0,0,0,0,0,0,0,0,0,0,0,0,0,0,0,0,0,0,0,0,0
1303.2727272727273,466.78252117867703,1252.8636363636363,466.72580871372486,1.0,0.0,99.71276027727687,0.38236621333402165,0.0,0.0,-0.04080583353126468,0.08277468325357837,-0.002866024539803023,0.03381760024827888,-0.0002534056407423453,0.012246248235238228,0.0543397837922257,0.05787633918057389,0.07250142661585773,0.0897141155926818,0.0766256775984699,0.09808286604295909,0.07306911251181776,0.0971556562691991,0.07540895106940904,0.09346884930030964,0.07719325552463824,0.0982987980714431,0.35124447946213855,0.33241924299856274,0.4838265987859774,0.5576365628062662,0.597173632853442,0.7613228164960091,0.10523218641592423,0.14034933464781646,0.08007035079385395,0.08735314561819577,0.13582265064440516,0.16218886287094658,0.5434344162997632,0.6585073450559165,0.7607388741037776,1.0852447132137766,0.5586785608381756,0.6218064567935835,0.9711539628420649,1.2283654336128136,0.5962551122447665,0.7881392763363562,0.0011612050541446506,0.0024446274737641876,6.675886993238675,9.572555168449048,66,175,90,0,1,1,0,0,0,0,0,1,0,0,1,1,0,1,1,1,0,0,0,1,0,1,1,0,0,1,1,0,0
1303.2727272727273,466.78252117867703,1252.7727272727273,466.7828017211901,1.0,0.0,99.69740909935582,0.36353562997922717,0.0,0.0,-0.03196906214867676,0.06722308598330823,-0.004000357612907385,0.033798655421515104,0.005827617280342182,0.03553023569545247,0.04586328997878964,0.044375697748527336,0.06717131216225623,0.08158192398727712,0.06975323521191766,0.08339904584650384,0.06257913897324385,0.07520353319003899,0.06975587252435682,0.08621088157049606,0.07275912362786131,0.08827382028288203,0.2855585222172237,0.2529102449520582,0.5717567694161224,0.7921092474998772,0.47882178834196343,0.5149034397048973,0.10000197529511629,0.1318347967735173,0.06263431360766854,0.060559338893699216,0.12143305498646734,0.14204992271604622,0.48193563104773995,0.5402696202520596,0.6894186634153229,1.0423458674038633,0.5350848059613122,0.6901985868329364,0.8915343245654221,1.2358236994764227,0.7006277862837346,0.8383521040732956,0.000531092892310558,0.0008005139427333361,3.6332488170346546,4.628858021495347,56,190,102,0,0,0,0,0,0,0,0,1,0,0,0,0,0,1,0,0,1,0,0,0,0,1,0,1,0,0,1,0,0
1303.2727272727273,466.78252117867703,1252.7272727272727,466.8112886603956,1.0,0.0,99.7091895569579,0.3613033319799873,0.0,0.0,-0.012280768830111822,0.07229420836045447,0.006650901498022991,0.020850751604655125,0.015027365502015355,0.055193335760992515,0.0562205454934518,0.0619343085825243,0.09293437270582668,0.08271244473991043,0.09500064647345668,0.12580910013194432,0.06757742846800549,0.0879778597153386,0.09430209827609666,0.08390077484503575,0.10224429753067253,0.13262011914570415,0.415184782431461,0.38559778964817903,0.6792368978803496,0.5591868820393692,0.694038180787395,0.8135606342479954,0.13397147795634384,0.14058685310868127,0.09651197063835922,0.09546106761510025,0.16676676919042774,0.16817928649665667,0.6186752498924286,0.6533006258042348,0.9208597984971231,1.046432576607915,0.6428709369397901,0.6140249830275282,1.1378133802416963,1.1984524709699338,1.0521668075897077,2.7253020413201763,0.0008409162559434205,0.0012751279185138152,9.243731602000823,13.370315923929411,56,189,110,1,0,0,0,0,0,1,1,1,0,0,0,0,0,0,0,0,0,0,0,0,0,0,0,0,0,1,0,0,0
1303.2727272727273,466.78252117867703,1252.8181818181818,466.7543084060225,1.0,0.0,99.70080539721671,0.3678462174309934,0.0,0.0,-0.0223708180907476,0.08787885584621791,0.019119179563774378,0.055584978545302366,0.013098848848013274,0.04508176213213363,0.07167405847007148,0.08536970907953177,0.10465304111825784,0.1432560222554122,0.0902758474019992,0.10280107358851936,0.08995549053153057,0.111474003197555,0.1083070974184417,0.15214094629147504,0.09428287604070783,0.10948004424171777,0.5036071778250836,0.6198072014736989,0.7428382646978906,0.9861174343199611,0.6850136394378848,0.67612798113276,0.13846713246380962,0.18860347948988246,0.09834201531090046,0.1089566078180212,0.17290777355749104,0.21521461994441757,0.6602658671515108,0.7818088341937144,0.7485603533919091,0.9992467925373425,0.6057452793741747,0.656269552912335,0.9816955792802258,1.179048424933756,0.7113288234085172,1.6043812065302068,0.0015222121977671566,0.003204030852669428,10.261225612551756,17.0289412674385,69,168,69,1,1,1,0,1,0,1,1,1,1,0,1,1,0,1,0,0,1,1,1,0,1,1,1,1,1,0,1,0,0
1303.2727272727273,466.78252117867703,1252.7727272727273,466.7828017211901,1.0,0.0,99.69772620872624,0.3665314319130498,0.0,0.0,0.0015497865557153143,0.0666951026616512,0.0077661173466798995,0.0271523722847581,0.008028956475054081,0.02447546800637964,0.05892368552685002,0.06364871251160376,0.07588225446214242,0.09484044511924772,0.08720836128632907,0.1020865511992631,0.07015556688235684,0.0835181631883372,0.07807724096017306,0.09708783698927193,0.08844655087310516,0.1041230058997583,0.4514572146757793,0.5003774639066884,0.600313638826731,0.6980321301695628,0.6960234689045152,0.7982864355559565,0.11042408898267472,0.13760837178735752,0.08252497056659767,0.0902840599487563,0.14053947268587733,0.1621384403812844,0.584563872464877,0.7556733671956684,0.7409598109784375,1.0680488558225263,0.6648152330959851,0.7199202051286625,1.0262118799501347,1.2621350542613075,0.2898083857453372,0.24779147518172115,0.001170806000917443,0.0032072275733276852,7.454834913689387,11.719368034667847,77,185,78,1,1,1,0,0,0,0,1,1,1,1,1,1,0,1,0,0,1,1,1,0,0,1,0,1,1,0,1,1,1
1303.2727272727273,466.78252117867703,1252.7727272727273,466.78280172119014,1.0,0.0,100.15177170355938,0.6177986795362299,0.0,0.0,-0.007369914676836702,0.061043674756773574,0.02010815594191932,0.03861871982669654,-0.006275406213634177,0.01886447646120065,0.07124299134652291,0.07484932622434186,0.10497836960966088,0.12742885974031526,0.07778294048253678,0.09585319668430153,0.07935049418613115,0.08997547578455863,0.1081764481243756,0.1319489470135052,0.0786368495359928,0.09710386120055327,0.43477654389296744,0.4014456426143151,0.725436127786243,0.7611170224936875,0.5340792956374242,0.5866315658147753,0.13305115367143602,0.16506418298008896,0.08461871097949814,0.08361186603280178,0.16076406175842298,0.1821905888683799,0.5083903451002926,0.5035694244971644,0.7192652792929682,0.9792352254457652,0.6135309899826481,0.7187201306988182,0.962601800883053,1.2000508314407003,0.9044790819578048,1.7731766509504854,0.0009507850301061025,0.001906076772783976,6.806162398874869,8.863060309253687,49,187,90,0,0,0,0,0,0,0,0,0,0,0,0,0,0,0,0,0,0,0,0,0,0,0,0,0,0,0,0,0,0
1303.2727272727273,466.78252117867703,1252.8636363636363,466.8302735781006,1.0,0.0,99.72109255124982,0.38348601268603755,0.0,0.0,-0.0045528531140092195,0.07512789969921185,0.00794749329919169,0.029200728828994462,0.011537980428534805,0.02606596569177735,0.05764143617295852,0.062091347123102186,0.07914229508579194,0.10600564412089977,0.08852698409594265,0.10049204634735003,0.07034656442629267,0.08837545403653613,0.0816227676000517,0.1082595686951886,0.09021923575260907,0.10286839630017147,0.373915994125198,0.37257467189003524,0.7353115386733236,1.0129709578357333,0.7142995335665889,0.8338952323331137,0.11246133672782435,0.13803068789950307,0.09162896161853061,0.09861136314200289,0.1477168238398583,0.16716418361791865,0.7281773041495346,0.918680951736277,0.6574927511987982,0.8874379556044683,0.5747737866029465,0.6452660268492456,0.8897704206348354,1.0829217296422833,0.6510305950605819,1.1322167533919278,0.0012999804152132703,0.002599389636797006,8.642765718871912,13.173174246892302,44,167,68,0,0,1,0,0,0,0,0,0,0,0,1,0,0,1,1,1,0,0,0,0,0,1,1,1,0,1,1,0,1
1303.2727272727273,466.78252117867703,1252.7727272727273,466.78280172119014,1.0,0.0,100.14906155983422,0.6298249242494034,0.0,0.0,-0.006873077204844382,0.052073952262498224,0.011718584047394181,0.0310535914652433,0.007717155637447449,0.0360876811800246,0.06078013680020739,0.07668591674395756,0.08452382216712108,0.12345809795274876,0.08142435933719819,0.11595625133425787,0.06751738306494318,0.08790053399807764,0.08671098255880327,0.12623179434685458,0.08407108579036554,0.11971122896379789,0.38685235321501105,0.4642658096444923,0.5476873283730275,0.6917773279274583,0.48157625431353956,0.6513011730669024,0.1221556670177963,0.17280579033305526,0.06981275123400435,0.08637872869916056,0.1430117755328196,0.19137000727373424,0.46247736320611615,0.6196962297462756,0.620940195354108,0.9488990009773567,0.4851259789696176,0.703998581392108,0.7978795727082598,1.1742299815609276,0.5012318531024577,0.809816066195441,0.0009640745734991294,0.002190304937242485,5.896503792929281,10.008108114792883,42,168,68,0,0,0,0,1,0,0,0,0,0,0,0,0,0,0,1,0,0,0,0,0,0,0,0,0,0,0,0,0,0
1303.2727272727273,466.78252117867703,1252.7727272727273,466.78280172119014,1.0,0.0,100.1472654306005,0.6204473829506527,0.0,0.0,-0.007602626315720484,0.0567598314118927,-0.003663418161801423,0.041116277518982114,0.01211716671654094,0.0353478832093808,0.05350087272934658,0.07372696256032642,0.044986010090978405,0.06342634892599129,0.08153048960586977,0.11888514984992857,0.06452341443589038,0.0857110847009335,0.0498354029752702,0.07238445796039347,0.08420842353653021,0.12268004241466292,0.2811616398293022,0.3656718169572329,0.31974095702463823,0.40353388794680073,0.45155568954793834,0.6146805651006514,0.10301895589759456,0.14569466272826087,0.05981459407364775,0.07710334720773335,0.120610769292138,0.16367255490260124,0.3876844623337593,0.5219831553721294,0.6021576427928537,0.8978416098905042,0.3970181320611486,0.49990368111229116,0.7312224912374835,1.0200192389801634,0.3054392505198567,0.24414953608044354,0.0002950700989865724,0.0006902373192336684,4.529748647204692,8.11809615258234,76,160,63,0,0,0,0,0,0,0,0,1,0,0,0,0,0,0,0,0,0,0,0,0,0,1,0,0,0,0,0,0,0
1303.2727272727273,466.78252117867703,1252.7727272727273,466.7828017211901,1.0,0.0,99.69070630473588,0.36380673900508703,0.0,0.0,0.00023733683070090492,0.034359109144085555,0.007744352269979448,0.06525384055650398,0.017776695165224052,0.04595558072979874,0.060926400701379085,0.07106680137399306,0.07701288793911314,0.09402567559270791,0.07477382743966395,0.09702543044769196,0.06494136206288449,0.07544971868394142,0.08335699249159062,0.10991176738056274,0.07962776418631169,0.10514834974288481,0.3875873429362909,0.4031282179150535,0.6346523430497792,0.6883119846332888,0.5410133110854978,0.6044003078094631,0.11396431269854818,0.1466987764624128,0.07040329664580904,0.08283783683733131,0.13464297584214813,0.1678612924153175,0.4680487824127804,0.5508327061450901,0.7566284228589382,0.9627557451025675,0.6205357864692627,0.7244591185347585,0.989069031876932,1.1954523837897597,0.302113876680399,0.39046739083861165,0.0006196119364523617,0.0009466525207221864,5.755615035273051,10.868333809019111,64,192,98,1,0,1,0,1,0,1,1,1,0,0,1,1,0,1,1,0,0,0,1,1,1,0,1,1,0,1,0,1,0
1303.2727272727273,466.78252117867703,1252.7727272727273,466.7828017211901,1.0,0.0,99.69225960861509,0.36649682832731406,0.0,0.0,-0.0027669089606232097,0.12133559390345655,0.01204525944104371,0.03440098249427485,0.0069284418541459645,0.04884759739474966,0.09402617774267549,0.121992636127178,0.08474020746577898,0.11013553272482103,0.15976148636911108,0.23280724070305436,0.11579288281794656,0.1574906592966251,0.08669255364247078,0.11443156165597354,0.16228342237189436,0.23601205726722482,0.5293174419427811,0.6163925149351444,0.5840157849836547,0.6797412715692762,1.0990732356563397,1.546580635936873,0.18680553961839783,0.25856545026257005,0.12033525350430847,0.15673553761900885,0.22361796194276798,0.3012031711592915,0.8447269739330843,1.2048103853834644,1.002011764013747,1.439230254978195,0.8385539486703621,1.1546954702856949,1.311561473771492,1.8409149325457217,0.46360058650098784,0.6067939112238709,0.0019361472698868115,0.0031219436266032856,18.506682360459294,31.689833177120853,66,163,62,0,0,0,0,0,0,0,0,1,0,0,0,0,0,0,1,1,0,0,0,0,0,1,0,0,0,0,0,0,0
1303.2727272727273,466.78252117867703,1252.7727272727273,466.7828017211901,1.0,0.0,99.69041059513157,0.3638745524970841,0.0,0.0,-0.004245996984459081,0.05146454493411637,0.014274771771952542,0.02293037041965245,0.0099664916002884,0.01875403516262138,0.050238138309511286,0.0546930914403916,0.06110292626900393,0.08326714475751935,0.05011883505097385,0.05805167399709616,0.058992726855574724,0.06820031275054152,0.06406975668732315,0.08527923896843279,0.052382857079179,0.059804000961319534,0.2916760156741624,0.2734878854557705,0.4257796272072232,0.5053821823306203,0.3128800067496402,0.32366320444531965,0.08791560990868248,0.10835786671804629,0.053999506938241494,0.058604232060823984,0.10461189952380477,0.1218871296387175,0.3584950559538286,0.4251099087151933,0.5992335125845153,0.8387807255628198,0.4691082860418978,0.5461717380287112,0.7720097580380822,0.9917939445245563,1.7925590084179754,3.3427794338127903,0.0002601824009087603,0.0004891515459065555,3.030092251616003,4.410717902809424,62,168,65,1,1,0,0,1,0,0,1,0,0,0,0,0,0,0,1,0,0,1,0,0,0,1,0,0,1,0,1,0,0
1303.2727272727273,466.78252117867703,1252.7727272727273,466.78280172119014,1.0,0.0,100.14360344102228,0.6255076463493822,0.0,0.0,0.00332841655907584,0.0847619559693838,0.01275511196241194,0.02850817122466222,-0.002076688437042696,0.03198050717369954,0.05699805804347991,0.05959256507307445,0.09579756551905906,0.09544217052211745,0.07341168033584249,0.07961505760435655,0.07403905760574526,0.09165841303870689,0.1001526412798688,0.09581774649811395,0.07553921350853691,0.08379729221841063,0.40671455425020836,0.4567990340375646,0.7755567601416744,0.8799402074130239,0.5370690397110086,0.702553072758468,0.12540506706035331,0.12646902795497228,0.0801914915834155,0.08741216737928201,0.15137479028159828,0.15108844194731877,0.6418107017408372,0.9187078220532242,0.7422187528492507,0.882834174462316,0.5093624900253455,0.5452964527772695,0.912124648764104,1.0264064932760026,1.5848926901554656,3.6032673451372337,0.0015086159784371293,0.004168611229744582,7.102464778310855,13.993602916785624,73,166,103,1,0,1,0,0,0,0,1,0,1,0,1,0,0,0,0,1,0,0,1,0,0,0,0,1,1,1,0,0,0
1303.2727272727273,466.78252117867703,1252.8181818181818,466.7543084060225,1.0,0.0,99.70348693804677,0.3623386867001218,0.0,0.0,0.0015876532636769929,0.04084858898495502,0.0028673207321011362,0.009347755395370716,0.0017508923468102905,0.01025500573712077,0.03525564029508257,0.033072270990976115,0.049213475046195665,0.045081604796136,0.057586385576467135,0.057433243311427754,0.04339753229210144,0.04573575490179132,0.049697917590893266,0.04553599547546224,0.05817815737958986,0.05769439933382636,0.25503605506938676,0.2403987097813393,0.45608505941707017,0.4604759360713729,0.4852254784270891,0.4835380478854187,0.07197513400949211,0.07143987193413172,0.05182841796846411,0.04754494334239807,0.08936945230066161,0.08504764470543927,0.38327360545331607,0.38273536613033315,0.6154700676573573,0.7600080123394688,0.5437817561771546,0.6389871230838914,0.8269451579027823,0.9876228158686623,0.6151458430489424,1.0264165070632851,0.00029328149844716294,0.0003664736948863949,2.5035742264541256,3.6036771819690716,59,178,85,0,0,0,0,1,0,1,0,0,0,0,0,0,0,0,0,0,0,1,0,0,0,1,0,0,1,0,0,0,0
1303.2727272727273,466.78252117867703,1252.8181818181818,466.7543084060224,1.0,0.0,99.69704347359348,0.36899992629888456,0.0,0.0,0.0005163442616498544,0.017238986586666345,0.0016187323017122384,0.01179408124439747,0.004293467518758306,0.01237455734358422,0.0341562792609487,0.034652680990789976,0.05549819183066451,0.06351927536068938,0.05600671977054461,0.06905426009480885,0.03621378419615362,0.03666288223674984,0.0561209400592864,0.06400281370046118,0.0567911141106822,0.06957022712589811,0.2551951787705097,0.2824546128335063,0.4484042108458885,0.514755574062752,0.4290761195787008,0.5497096195707748,0.07506488470483207,0.08214427168391206,0.04905316212641566,0.05627656869455375,0.09028908239694401,0.09895690322461306,0.38904385711086675,0.5122498186699773,0.5121130458588996,0.6633310532558422,0.3794487426824082,0.4498903331603197,0.6429851929958279,0.7965648424382316,1.657702760122433,2.471547095823087,0.0005366934005743719,0.0010165837867784158,2.67749163650637,4.614311241309495,58,175,122,1,0,1,0,1,1,1,0,0,0,0,0,0,0,0,0,0,0,1,1,0,0,0,0,1,0,1,1,0,0
1303.2727272727273,466.78252117867703,1252.7727272727273,466.7828017211901,1.0,0.0,99.70963231895479,0.3744470556291077,0.0,0.0,0.00023675850434665385,0.02517622787035577,0.0029711640608929587,0.011866138614409051,-0.0022743739495687913,0.020576053750750736,0.03626723296896573,0.03844965241676462,0.04884824085635608,0.06292482799530336,0.03249522836007234,0.035694431455384874,0.03983800400179222,0.04271604184547683,0.04967128476590083,0.0633885535327011,0.03421703858792138,0.039751437241962194,0.22339907768165465,0.20162624812784363,0.33873097029421273,0.33038397962876204,0.2620549583561657,0.26521747472683077,0.05649899621415044,0.06887207717208836,0.04755738207462046,0.0494454851691087,0.07467532985968506,0.0839935786938401,0.2758645616997822,0.2662652522566583,0.37698163467908435,0.5021692805793677,0.3877163146600489,0.4361117321067651,0.5480717799989321,0.658552979520711,0.17635022159037433,0.17810432396305237,0.00013468956258792043,0.00023092484019999037,2.2783422905839643,4.154513742948088,63,170,100,0,1,0,0,1,0,1,1,1,0,0,1,0,0,1,1,1,0,0,1,1,0,1,1,1,1,0,1,0,0
1303.2727272727273,466.78252117867703,1252.8181818181818,466.7543084060225,1.0,0.0,99.70725502835938,0.3696841575301232,0.0,0.0,0.0029293182241173043,0.027302210372006787,0.007613494645499527,0.020756254788150352,-0.0019068976967554182,0.007473358816063075,0.06065986451186896,0.046447691408350304,0.07450197146745702,0.06280746074207813,0.061566632747596,0.051710273071081184,0.0637110625664445,0.05008241059738219,0.07619097923818331,0.06449831295951561,0.06189120287150058,0.05181733209258407,0.5350989626754682,0.3554572374213621,0.7595978179921247,0.6485644295083295,0.5888671292375798,0.5041284483675138,0.08996184451419181,0.08051802850511687,0.07499567398748788,0.05343108254892933,0.11912576157400565,0.0939862935489305,0.626225802909298,0.5084982602416905,0.628452226014577,0.7193588980611294,0.6034080889884973,0.5103346072019298,0.8877971719924802,0.8641557806610711,0.1872685455429976,0.20996074195068437,0.0006445889148647414,0.0010923131882876011,4.4157695936446295,4.751695195307893,73,172,63,1,1,1,1,1,0,1,1,1,1,1,1,1,0,1,1,1,0,1,1,0,1,1,1,1,1,1,1,0,0
1303.2727272727273,466.78252117867703,1252.7727272727273,466.78280172119014,1.0,0.0,100.15365845152029,0.6164907455868709,0.0,0.0,-0.003909485762255926,0.046769169572691616,0.008465167227500679,0.01800299964549064,0.006469892364911456,0.02206104712326454,0.03591413436493483,0.04817189687041027,0.04410779505569301,0.056813619888847734,0.057900645174259836,0.09247868261039834,0.04236264189984994,0.06317721856631542,0.04591845420273306,0.05874369813723955,0.05929987037035602,0.09433293238041077,0.22070367063130567,0.24608044997307615,0.3620634352421516,0.5447374891942756,0.3244449056409413,0.4556107451344518,0.07808589331266026,0.11499498625693493,0.04013930782910675,0.05309311878495518,0.0886310624176247,0.1260326767826567,0.28385524656278704,0.43087538907166,0.46944075181357886,0.7015585465074606,0.3194585923992643,0.4539917650418778,0.569720031253288,0.8340963049618793,0.5382136172766642,1.2019282464756604,0.00016637021352529477,0.0003185098005938192,2.118087155977678,3.460199219288448,56,175,81,0,0,1,0,0,0,0,1,1,0,0,0,0,0,1,0,0,0,1,1,0,0,1,0,0,0,0,0,1,0
1303.2727272727273,466.78252117867703,1252.7727272727273,466.7828017211901,1.0,0.0,99.70158902722159,0.36440485471370304,0.0,0.0,0.0027318995413756295,0.02438738911071785,0.0061385525263396214,0.01656148933780413,0.007423653193508173,0.018956174888981926,0.036080438618383094,0.036842660026535134,0.07177870530803793,0.09563719453949096,0.06344033010154966,0.0803088160733073,0.03979485856444331,0.040767193462110864,0.07238436963428686,0.09671533359705782,0.06460976450623368,0.0818462591258232,0.2866602063726414,0.2790130899025552,0.49805551940969456,0.5291821850731209,0.47346410882773515,0.5502544386224333,0.08941932335299276,0.1175669439768375,0.05501658690686191,0.062237972024124635,0.1060664267559016,0.13209870125966616,0.39999558019088044,0.4529533715254445,0.5539740080182313,0.7812236859001459,0.4155143225262652,0.5783482701051638,0.6984671138425668,0.9672409499977983,1.182789677478767,2.901124632865304,0.0005248051881332177,0.0011373123839683976,3.2968750334690067,5.720936642079636,75,194,87,1,1,1,0,1,1,1,0,0,0,0,1,0,1,1,0,0,1,0,1,0,0,1,1,1,1,1,0,1,0
1303.2727272727273,466.78252117867703,1252.7727272727273,466.7828017211901,1.0,0.0,99.69539476196982,0.3604002435117173,0.0,0.0,0.005725592231432308,0.07738525425252195,0.004244344135440614,0.02142633398105265,0.0143567973681472,0.048810608038496094,0.06651224129310554,0.08748072667120389,0.07132054452785931,0.08901609388612375,0.10420867544253917,0.1487137976420083,0.07974919655200864,0.10786525836122514,0.07300824521811423,0.09018409495240712,0.10924456033884397,0.15347263896495122,0.5623346953328167,0.8492927177071317,0.579664438721057,0.7635425090592488,0.8796360324397662,1.395236844560009,0.11852059453676017,0.15593148487574746,0.09824705436675835,0.1376894220049869,0.15566133479352048,0.2066086703228497,0.8211417082594036,1.3493148461468634,0.772982527042862,1.1691959024568594,0.5877477421034976,0.7516670467464286,0.9816761534287678,1.3817903335822392,0.23908315183384346,0.18444545769540707,0.0032571489578012715,0.00898966821714892,13.598297271957096,27.829325002930823,69,177,82,0,1,0,0,1,0,0,0,1,0,0,1,0,0,0,1,0,1,0,1,0,0,0,0,0,0,0,0,0,0
1303.2727272727273,466.78252117867703,1252.7727272727273,466.7828017211901,1.0,0.0,99.68569697115444,0.3635842346884073,0.0,0.0,-0.020846126533474927,0.059168938054993056,0.010930050169483292,0.05479316874130552,0.0032843990126494274,0.015114009009733639,0.07612360629576152,0.1012563064897914,0.10596730703682625,0.16234454763929898,0.13773753500321548,0.19403313522772947,0.08417490055012081,0.11331490701444727,0.11138944196794155,0.16795681617277422,0.14004550887659495,0.19276382415492593,0.481899832185443,0.5346661102916462,0.8802838179666442,1.131321687991782,0.9559800516448718,1.1793576454114727,0.16899009601082565,0.23273236275956363,0.11505933278929531,0.14581043584148723,0.20717287290116457,0.2724172542111125,0.8851727193396003,1.1049428504078207,0.8506779857832908,1.2303531099355902,0.5226173138747454,0.6057206695156359,1.0164900202975116,1.3571253768378824,1.2093376432777534,1.9692678630125906,0.0023327120129742734,0.004991069398401274,16.347852774970956,28.204025727482012,78,170,94,0,0,0,0,0,0,0,1,0,0,0,0,0,0,0,0,0,0,0,0,1,0,0,0,0,0,0,0,0,0
1303.2727272727273,466.78252117867703,1252.7727272727273,466.7828017211901,1.0,0.0,99.70735605154259,0.3762858326367697,0.0,0.0,0.0019562561293754686,0.03382565736007853,0.0028188071423904545,0.009981432421392234,0.009624116070075168,0.01975129127582438,0.03194124998580249,0.030460221330772492,0.042458670708697424,0.03887497180598693,0.03764353682612132,0.035731937742695084,0.03798991365753512,0.04038390105778106,0.043175879322486836,0.039388167426847955,0.04052733389464591,0.03905166009937871,0.21130363131356306,0.18940062333087726,0.27432483622336046,0.2272467634203988,0.23752462270992716,0.19874401134471717,0.05776670306916904,0.05703443355870518,0.041231304817552925,0.03696298864345481,0.07160276504607745,0.06724421830344358,0.20902860300392348,0.17282700800202022,0.49244491754912173,0.6536698191508475,0.4508234489434877,0.5681582650968464,0.6761734861140467,0.8587928309513699,0.8701853559727759,2.154510794314569,0.0001036875128990645,0.00017859334626085243,1.5120924683435566,1.9467828576402033,60,158,58,0,0,1,0,1,0,0,1,1,1,0,0,0,0,0,1,0,1,0,0,1,0,0,1,1,1,0,0,1,0
1303.2727272727273,466.78252117867703,1252.7727272727273,466.7828017211901,1.0,0.0,99.69367960672876,0.3654557211041619,0.0,0.0,0.00220205266646205,0.018279973819235254,0.011205841494397364,0.0278648751222832,0.010697605989203633,0.03521390776674631,0.04956600541701795,0.06310952320487549,0.049935246089990046,0.052479378673966876,0.05458422142997681,0.062229222191182515,0.05156873581586197,0.06405589993238968,0.05334347353041284,0.05734047169947954,0.058360164351165,0.06912637546630494,0.3080868263263863,0.3589795013260246,0.34254208051629476,0.33127600911966676,0.3404813873919963,0.34477509555496366,0.07567549958128127,0.08165899551481308,0.0570832688772201,0.07370423752471433,0.09657295954605381,0.10832445632616193,0.2973649934997896,0.31437325234385183,0.4705682471281729,0.6444943446760982,0.36528406072904435,0.47331563983134645,0.6012497461540157,0.7950332647645749,0.3446761343775806,0.48378150973706413,0.00014099565423333769,0.0002444760216819803,4.164940659341136,9.846013445244914,78,175,60,1,1,1,0,0,0,0,1,0,0,0,1,0,1,1,0,1,1,1,1,1,0,1,1,0,0,1,0,1,1
1303.2727272727273,466.78252117867703,1252.8181818181818,466.7543084060225,1.0,0.0,99.7065342353843,0.37809826497331994,0.0,0.0,-0.0007666032572468996,0.02885569656640442,0.006637407183505781,0.014898372565530763,0.001846542147235882,0.014967827254147408,0.047828324603669765,0.0421722568765441,0.044853125942447065,0.04151101777538298,0.06907613246547879,0.0755749485795201,0.05140044322488974,0.047288559009999745,0.04663150836910602,0.04262570205300479,0.06999883856921205,0.07611686152851552,0.4788563444493514,0.7704091744137719,0.4658951209858326,0.5633131388458839,0.7493325823516198,1.3670504541688107,0.07019400782625797,0.06518532190125217,0.06934642257011847,0.07475267092413487,0.10089639453563032,0.09675282971403444,0.6364975677669436,1.1772232492436836,0.49881210458157565,0.6227045537991022,0.5424543935368282,0.6485334885987171,0.7442273730323765,0.8923508346951295,0.24158946053171138,0.2512321835539004,0.00034189414125294616,0.0005276626563145791,4.965678684234281,9.676086213901153,54,173,61,1,0,1,0,1,0,0,1,0,0,0,1,1,0,1,1,0,1,1,1,0,0,1,0,1,0,0,0,1,0
1303.2727272727273,466.78252117867703,1252.7727272727273,466.7828017211901,1.0,0.0,99.69059892346041,0.36384170442138614,0.0,0.0,0.0016775576357708462,0.04806093689938768,0.005456206299113266,0.01754778725378967,0.004992325027482627,0.021515521076746005,0.041272341007727545,0.03821358658803146,0.05154449368316889,0.05107549232885554,0.06178452915474149,0.06697393320301505,0.050651122034176474,0.05354049317104004,0.05316063005293382,0.052583912016946274,0.06424219149694547,0.06812771924668698,0.27103909381028823,0.23531816510736356,0.43808459554327855,0.4084524581292633,0.4455746080466809,0.47607765764896476,0.07792437430872602,0.08764827572538432,0.05833527606956639,0.05140653091788828,0.09878975317515426,0.10010397501456544,0.38963809297171187,0.3868207222204672,0.6151705687318894,0.7921653294677374,0.5569937778293294,0.5464486912646324,0.8436608450175581,0.9493777821417947,0.28912361463994596,0.33000910167498027,0.00028554333553768805,0.0006656515013654664,2.943608922347613,3.706038742209509,54,172,80,0,1,0,0,0,0,0,1,1,0,0,0,0,0,0,0,0,0,1,0,0,0,1,0,0,0,0,0,1,0
1303.2727272727273,466.78252117867703,1252.8181818181818,466.85876689327375,1.0,0.0,99.69347052441857,0.3701672231241341,0.0,0.0,0.010543334626285318,0.04645705558105771,0.002524765113675159,0.016117903691125906,0.0020526374957083103,0.02622465163899688,0.05609727914760299,0.06516351853610178,0.07347916984603177,0.09669731151577378,0.07932936194547723,0.08785444412392646,0.06262469245031975,0.07550817423391422,0.07442605996991869,0.09723581516309826,0.0811133664390213,0.08997819105183279,0.4757820344570744,0.5692902942235714,0.6038829391681042,0.6723980799553636,0.6859912270872134,0.7889896875620158,0.103088420113327,0.13091771234253965,0.07336918935865971,0.07846351990844504,0.1283817434266533,0.1509633745734998,0.5754454325804846,0.786865751159102,0.7225590485564043,1.064430858669488,0.5044367071233746,0.5982108407918963,0.896492085786381,1.2090443685005305,1.27357062146418,3.530313496150139,0.001127592116214874,0.0031444644703202047,5.619061218808006,10.607092102286867,54,191,98,1,1,1,0,1,1,0,1,1,0,0,1,0,0,1,0,0,1,1,0,1,0,1,1,0,0,0,0,0,0
1303.2727272727273,466.78252117867703,1252.909090909091,466.697302643129,1.0,0.0,99.69501103230864,0.36715628717741716,0.0,0.0,-0.027865363988599023,0.09926522024199577,-0.012455785140698106,0.07934542482789603,0.007136021905700244,0.037694419532752266,0.10497472119109547,0.13141283430341874,0.12864890456876465,0.16941799368385224,0.14493079029056125,0.18758768164738365,0.12016830035795505,0.15595898513560308,0.13457490060270463,0.18297349952424494,0.14683595913671646,0.18979605221112117,0.767011241673075,0.9463774912527104,0.9574930159870558,1.0894791465617142,1.1485944834500434,1.4106015714232436,0.19057392172054677,0.262496175887577,0.1344044738487821,0.1571025898780766,0.23711898902209258,0.3026724293361506,1.0897539155971372,1.3172309151160568,0.9133404022377839,1.3493909855286763,0.6696635944129836,0.782139389436951,1.1559814664542232,1.5411941947242647,0.7898201280850382,1.2124575032446994,0.004471254049149527,0.008296977472464832,20.324301240655164,31.758314885433453,61,182,80,0,1,0,1,1,0,1,0,1,0,0,0,0,0,0,0,0,0,1,1,1,0,1,0,0,1,0,0,0,0
1303.2727272727273,466.78252117867703,1252.7727272727273,466.7828017211901,1.0,0.0,99.69218802404548,0.3677851074511579,0.0,0.0,-0.014270769763054329,0.08214254128743335,0.03517352555180132,0.0739298530312568,0.012750618193431235,0.05085780317121311,0.09223136125231379,0.09270207329931282,0.1545046769922387,0.21402714303968678,0.15233926308788864,0.16402968022043685,0.10534500119357224,0.11323562752846918,0.16069061836793025,0.22462018663402555,0.15619948321440724,0.16841554387879706,0.7639390828647904,0.7426753322662126,0.9088087630203723,0.9516839033631646,1.0716199013474583,1.0861665973805896,0.20637731722826705,0.2708620741098389,0.141374948587144,0.13035036594877056,0.25872188664919993,0.29283619082851076,1.0549249326551093,1.0295703809455565,1.0606395769270505,1.5593299014097053,0.7621780659247989,0.9517075063959214,1.3251347436793928,1.8119637826992376,0.5220808158793528,0.7243933736987233,0.0030127799673663105,0.0044544022900564854,18.16998997451536,22.91799310324093,60,175,100,0,0,0,0,0,0,0,0,0,0,0,1,0,0,0,0,0,0,0,0,0,0,0,0,0,0,0,0,0,0
1303.2727272727273,466.78252117867703,1252.8181818181818,466.7543084060225,1.0,0.0,99.69506441137258,0.37092022804853186,0.0,0.0,0.003260130297757664,0.02198518902675594,0.006766288622989986,0.014632307147814608,-0.0007695435070745542,0.01455370638321209,0.057950495948407225,0.05004765528608033,0.07247563808066965,0.06160109171749552,0.07468246290202063,0.07074736883918048,0.060068289181830485,0.05226277358948588,0.0733913910772712,0.06250961707465794,0.07543456152551588,0.0713326905196159,0.44379730162717834,0.33909337351187846,0.6153726956955361,0.4735451250413814,0.6628124681545737,0.6976284042410429,0.09883823351595473,0.08549023285412369,0.07127135729453897,0.06524331603597519,0.12291154308104536,0.10622951800169284,0.5387879510714488,0.6195063277886362,0.6047174508154445,0.7169451730825144,0.49588520986020584,0.5130878900095308,0.792028184432738,0.8719392270252729,0.7168010742988815,1.744876446592957,0.0008266536047959344,0.0016716602277939594,4.668876598158964,7.363251362860315,47,175,70,1,0,0,0,0,0,0,0,1,1,0,0,0,0,0,1,0,0,0,0,0,1,0,0,0,1,0,0,0,0
1303.2727272727273,466.78252117867703,1252.8181818181818,466.7543084060224,1.0,0.0,99.69453814637149,0.36501705188513983,0.0,0.0,0.003421885898303172,0.04264568931700302,0.008785575869074714,0.015775623863948967,0.006356205426787247,0.03430186879099062,0.05481926514767605,0.057394068417970893,0.05808125069157926,0.06861908432483624,0.07305999709791128,0.09464519848711983,0.06072374914234843,0.0663608523639862,0.059207285828911875,0.06993951654165254,0.07633536525402793,0.09823005051280637,0.37144486594069226,0.3602192048380801,0.5512434082944007,0.903494629150348,0.5117090619332881,0.6457846011107913,0.09584227570914826,0.11652108649780261,0.06389041705395693,0.07153551894183356,0.1180647278898745,0.13409455251387822,0.493983586446773,0.7295739939531772,0.6954689753169524,1.0450835585823126,0.5141073326316838,0.6783062079954317,0.879687475510453,1.2346837059919873,1.024740897436346,2.075159931157644,0.00027245946588854016,0.0004993698631412744,4.394736951679952,7.324377073948969,55,164,58,0,1,0,0,0,0,0,1,0,0,0,0,1,0,1,1,0,1,0,0,0,0,1,0,0,0,0,0,1,0
1303.2727272727273,466.78252117867703,1252.8181818181818,466.7543084060225,1.0,0.0,99.69145173903621,0.3625918495019837,0.0,0.0,0.01863993742003684,0.041780918453042805,0.0037173407892787183,0.02265609451888095,0.007492630098873413,0.01971075542199908,0.04078538768902722,0.04120443788165221,0.05775774963646832,0.06669861181231294,0.06235022015153375,0.06764981449824158,0.04890784324748294,0.05514300826436594,0.05977944533991511,0.06869800346476702,0.06421934978247673,0.06904533669156555,0.2816120294190665,0.29703772007814533,0.39260439984833595,0.3980768438856893,0.46892207191659113,0.5478626660397625,0.0823301305476291,0.0936973144954335,0.05839413064137328,0.06043556293155491,0.10226825747721677,0.11018500984455287,0.367380425301298,0.4214068389758359,0.6399795775823184,0.9031792292627299,0.4945147948534134,0.6112899496378228,0.8194298492555483,1.0819377386880638,0.4425091583500516,0.9399066744260265,0.0005686950221581117,0.001118147655489544,3.4224331227638554,5.153414279402903,73,187,89,1,1,1,0,1,0,1,1,1,1,0,0,1,1,1,1,0,1,0,1,1,1,0,1,1,0,1,1,1,0
1303.2727272727273,466.78252117867703,1252.8181818181818,466.85876689327375,1.0,0.0,99.68861989591481,0.36578235226130223,0.0,0.0,-0.04349757857098097,0.14580840314057644,-0.01868762648020624,0.12010300988904622,-0.010051768409114037,0.054640087931075366,0.17139432110845124,0.20234032446879543,0.21132324337383396,0.28116933621680873,0.27501027834839625,0.38404449337534435,0.1945961135692866,0.2349777997081468,0.220263713988526,0.29945879757325533,0.27639604066640444,0.3867156288129626,1.3072240194696565,1.4788004278455125,1.679568989273008,1.999659839256906,1.9651710538323501,2.489919077813438,0.30751643563931175,0.44157897376292926,0.25889838551186,0.3175886945185685,0.4127665221888956,0.535237929973101,1.8001020630627211,2.227700182636407,1.2311579850937686,1.94408961068142,0.8313807462995508,1.0415879765625053,1.5123405523192106,2.1859744269148274,0.4914209319381708,0.5788616185350846,0.01797669608778553,0.04435693157997646,79.84020278446457,153.3086204827731,80,171,93,1,0,0,0,0,0,0,0,1,0,0,0,0,0,0,0,0,1,1,0,0,0,0,0,1,1,0,0,0,0
1303.2727272727273,466.78252117867703,1252.7727272727273,466.7828017211901,1.0,0.0,99.69337815245932,0.3647179986271552,0.0,0.0,-0.011400107301961166,0.0653381957023994,0.015559598462337433,0.1219776511722745,0.02249550167009564,0.06711357567273316,0.08186112418908162,0.1213740488829493,0.17048301860222972,0.28132429168435474,0.1574753340690511,0.22245417826592662,0.09031751916050051,0.13262435809930984,0.179382049186225,0.30149844967725525,0.16255193831251077,0.22965360567247833,0.6000279103644778,0.7827505476558759,1.118023446484806,1.4138563173244636,0.9672581910905417,1.1939860335689176,0.22405824121766013,0.36199470031050607,0.13392247600685553,0.16969181266606506,0.2678327979382139,0.3949914628879872,0.9863741176023105,1.2409988069428022,1.0380255301637098,1.5558170852317688,0.6732727471870775,0.7712132048671839,1.2652758469234913,1.7148670726869952,0.7995475620317268,1.1048956966323764,0.0022850095253577865,0.00396873004514092,22.12043278089838,38.05709648293135,61,170,103,0,0,0,0,0,0,0,1,0,0,0,0,0,0,0,0,0,0,0,0,0,0,0,0,0,0,1,0,0,0
1303.2727272727273,466.78252117867703,1252.8181818181818,466.7543084060224,1.0,0.0,99.71404265134015,0.38824196280673645,0.0,0.0,0.008275028575287655,0.04605389798666826,0.018299245295969782,0.0741943799351997,0.02568064090799804,0.08638240989629979,0.07335318657305773,0.07639340683625025,0.10385907102368375,0.13489260630044986,0.10713065552928704,0.14515031643999401,0.0795415067373919,0.08381941708221347,0.11308860886422742,0.14806650686339692,0.11597268706257419,0.16468410117319748,0.42511266774832707,0.39873412632306626,0.5513092666174444,0.5727339806228529,0.5637031689959602,0.61020435650345,0.15782011462120596,0.2152980156842266,0.08900950330627128,0.09725380686629201,0.1844519935899643,0.23354628842544178,0.49601482888154924,0.4852403945072235,0.8646834508218812,1.1925182638733385,0.5824302125717842,0.6150598366435625,1.0715492356085328,1.3173495837149944,2.053518311652652,3.827995236062991,0.0003339551158923037,0.0005719590844604838,8.261888684763635,15.727613523248099,56,173,68,0,0,0,1,0,0,0,0,1,0,0,0,0,0,0,1,1,0,0,1,0,0,1,0,1,0,0,0,0,0
1303.2727272727273,466.78252117867703,1252.7727272727273,466.78280172119014,1.0,0.0,100.15078164763614,0.6213838466113176,0.0,0.0,-0.0018753668390656683,0.032432751466536576,0.007458312856465963,0.015354015058458629,0.003873576412138009,0.011474883092827523,0.04422630976814219,0.042234511538515325,0.08084001570008731,0.06674550529030285,0.05775868174345315,0.05100628808960919,0.049217976010163936,0.04844378688858922,0.08165529004010336,0.0678140464839539,0.05856393609746364,0.051426665195739324,0.3167697151250233,0.290438255811852,0.5629934745062714,0.4854293589916377,0.39909105632449776,0.3727994096790104,0.09692841542929215,0.07943381591810611,0.05922140012711218,0.05372531877441684,0.11393907781536802,0.09542455523530735,0.38518037755473084,0.38580071131194726,0.5744177556904524,0.6376320196422725,0.39583556968456557,0.45587631351049074,0.6998625578821644,0.7814732907045729,1.3880453281812053,3.369980030161137,0.00034824477827047725,0.0006126519362510515,3.106666844005154,4.455463710446315,50,162,74,0,0,0,0,0,0,0,0,1,0,0,0,0,0,0,0,0,0,0,0,0,0,0,0,0,0,0,0,0,0
1303.2727272727273,466.78252117867703,1252.7727272727273,466.7828017211901,1.0,0.0,99.69742472112733,0.3619079217753361,0.0,0.0,-0.0013971537212090002,0.01730908644958782,0.0004063705327357681,0.008325119205928657,-0.0003949814494362318,0.005603020859861447,0.028116353506160832,0.033810052706900455,0.03601728927966876,0.03811252752331693,0.03758470680662875,0.03739783210787545,0.03075627885557154,0.03577680128031789,0.036618233993280805,0.038385447196195965,0.03795940384420499,0.037386321409492704,0.2128419746537111,0.2686127295195488,0.2902756077508649,0.33082673693539993,0.26315407568510313,0.2764156972947275,0.05147088739779748,0.04949433374279999,0.034807766833990804,0.039558836478985955,0.06234334477575134,0.06312415013672062,0.2370326869547009,0.2788665422265189,0.4128203732602985,0.5106431883619768,0.3217408385419849,0.44347895440175933,0.5276362273899946,0.672638301305981,0.6792533882077917,1.264903082013044,0.00023135790297080359,0.0004615237690580204,1.3806958414263462,2.428196772246228,67,158,88,0,0,1,0,1,0,1,0,1,0,0,1,1,0,1,1,0,0,0,1,0,0,0,0,0,1,1,0,0,0
1303.2727272727273,466.78252117867703,1252.7727272727273,466.78280172119014,1.0,0.0,100.15563120360774,0.6155527609454363,0.0,0.0,-0.004852898614514055,0.04055239455335066,0.001879844726176559,0.013001630797763538,0.007615008799476872,0.027388626813541435,0.04039658860060564,0.06291256608917077,0.040603753602846016,0.07128123260533414,0.05694391496850936,0.0804795609034632,0.04728063385736407,0.07063322497942477,0.04268024172455485,0.07117312904129096,0.059514517217418246,0.08345135686757461,0.23465591301513847,0.37186047626823815,0.31935126418390863,0.5611396893985436,0.35532122255228166,0.536629437305248,0.07727657562605164,0.11067861254837537,0.045804292041545035,0.06544154840672226,0.09011410757417959,0.12834503696871918,0.3411973524435118,0.5691021154688426,0.4887517493225134,0.7799271721183058,0.31215404024065574,0.4332209699070462,0.5833412003441757,0.8896695233855203,0.2868326079565203,0.3443693697308142,0.0002906868821877027,0.0007416742051867274,3.0311859018355913,5.735710371812283,76,160,64,0,0,0,0,0,0,0,0,0,0,0,0,0,0,0,0,0,0,0,0,0,0,1,0,0,0,0,0,0,0
1303.2727272727273,466.78252117867703,1252.7727272727273,466.78280172119014,1.0,0.0,100.14693342883153,0.624520049149956,0.0,0.0,-0.007809331320657964,0.06034498440944062,0.005934170555099581,0.021899267757012,-0.0033642774439342268,0.016327075231054772,0.07356710042102316,0.08138175684965111,0.08127675899686998,0.08109873084940734,0.09281857925093914,0.11666804969556413,0.08326236878463694,0.09340543185962959,0.08275121082526384,0.08263767367267544,0.09394071839876136,0.11683373581091007,0.5262870766464149,0.5929095571060969,0.6696077106910292,0.6463454517174588,0.7599985421951448,1.005126359238776,0.12286903438988855,0.1252976890336811,0.09604085953437519,0.10828899269984016,0.1568517220637176,0.16465526643936468,0.6287666937849042,0.7987635952593399,0.6074248419026747,0.6443773844940185,0.5253701944386884,0.6606765520960518,0.8095586950565884,0.916561898434925,0.529349878567769,0.9079396488665934,0.0009634287515501345,0.0019484829196307265,12.295412630174894,22.267449125148136,56,174,95,1,1,1,0,1,0,1,1,1,0,1,1,1,0,1,0,0,0,0,1,0,1,1,1,0,1,0,1,0,0
1303.2727272727273,466.78252117867703,1252.7727272727273,466.7828017211901,1.0,0.0,99.69139820195302,0.3626265114311871,0.0,0.0,0.0034649779736342337,0.0677847335291116,0.004540688258482296,0.020977691833358875,0.007530078986790728,0.03271241024352073,0.07086489676612061,0.08520953278829516,0.13236735720078782,0.20321485211324014,0.0882242509945045,0.13780964357244108,0.08083056662105208,0.10134847728994616,0.1332683170414042,0.203584918611338,0.09037867304934478,0.14032146542260165,0.4495827228734502,0.5026906849803643,0.8179990469220392,1.0815434904652705,0.5786691064272584,0.8871765980783215,0.15305650077122895,0.2329153573652355,0.10015690155466023,0.12705560569850136,0.18523148645824106,0.26357551966741216,0.6478068248763514,0.8855846171240971,0.7377208057285266,1.1281815310380028,0.5457566882043406,0.6193757604031976,0.9369058606293806,1.2721229962671803,0.37121881474786284,0.5425177604388046,0.0015251617810740292,0.003761872338811498,12.71344443399071,24.259580860227743,71,176,79,0,1,0,0,1,0,1,1,1,0,1,0,0,0,0,0,0,0,1,1,0,0,0,0,0,1,0,0,0,0
1303.2727272727273,466.78252117867703,1252.8181818181818,466.7543084060224,1.0,0.0,99.70443888288541,0.3788360260461713,0.0,0.0,-0.002310491130609082,0.040267849015073076,0.0019230635216913817,0.06226713618829534,0.007371024875345743,0.05360596358547443,0.07373658290486775,0.0886110536071848,0.1140229515974331,0.12370337148921644,0.09431633687616915,0.10775675800692139,0.07837137432789831,0.0934164469962204,0.11956671000902262,0.1334087952351533,0.09976392053491169,0.11581441915932601,0.47576065171355747,0.50024528529646,0.7918752047436809,0.7416861493010156,0.6328470791830401,0.6566503253969416,0.14896003551320602,0.17146189699696054,0.09482048745615615,0.0986473874509412,0.17750675664522447,0.1968927739421734,0.5765233440742967,0.580183412885818,0.7741181281474895,1.0432204039030364,0.5529018790472064,0.6149819936443972,0.9662053947427544,1.1982654700388393,0.1926322321019459,0.22193307171227916,0.0012935098787575676,0.002626326134642206,9.099802738519305,14.937745484913341,66,173,86,0,0,0,1,1,0,0,0,1,0,1,1,0,1,1,1,1,1,1,0,0,0,1,1,1,1,1,1,0,0
1303.2727272727273,466.78252117867703,1252.8181818181818,466.7543084060224,1.0,0.0,99.68996079072426,0.3611627216802674,0.0,0.0,-0.006134111418085633,0.04511727978479371,0.009210754909281992,0.016801688793597253,0.006628847333245528,0.014285085695803307,0.05325127180478464,0.0555578450687086,0.06783150216279742,0.08494356426919412,0.07838985442371872,0.10467815968417689,0.05893916969298689,0.06698534941625335,0.06910860423861931,0.08597139139197991,0.07958272639073871,0.10484456197447388,0.46867295534093734,0.5607778675914489,0.6606205409993291,0.8993953329774793,0.675099497497642,0.9725269392324003,0.09242580856856146,0.10975976743770427,0.07955983338720929,0.10265496595185016,0.12302122505433838,0.14930932765239052,0.7182084038718994,1.073602553971143,0.619395423033544,0.8815257938490758,0.4579549422704304,0.5709301780265467,0.7838346548336251,1.0394539155583316,0.46095004669774886,0.9618166611600568,0.002068137590815147,0.004578039655559609,8.025214927449898,14.93825546971444,70,183,82,0,0,0,0,1,0,0,0,0,0,0,0,0,0,0,0,1,0,0,0,0,0,0,0,0,0,0,0,0,0
1303.2727272727273,466.78252117867703,1252.7727272727273,466.7828017211901,1.0,0.0,99.69883054877396,0.36271177067585,0.0,0.0,0.0075205918122896705,0.04454461925287613,0.003125914461164593,0.019200368991358237,0.0016122675944730907,0.0143732615389218,0.04039765930876594,0.041987503698819886,0.06003636331077564,0.06552481654298384,0.04631824328966469,0.04474131008681713,0.04887929475896378,0.05486034810947901,0.06182451349670499,0.06660233041842949,0.04737377541542517,0.04586162768639965,0.2582512261942088,0.230009341183229,0.4949557776082631,0.5738985501990683,0.343715167254883,0.34451082068082794,0.069345971066412,0.07321102734384234,0.0611302515202121,0.06405290016920025,0.09430812571237322,0.09533967695943138,0.420575191381194,0.47509016425789946,0.5321901397188648,0.6802471763123686,0.4537065077176534,0.4690149951922433,0.7099849589065028,0.8164248083847955,0.2220504624878241,0.1615536294741774,0.00016212450053967103,0.00026406462787542873,3.8096740276513628,7.115740618710455,69,168,65,1,1,0,0,1,0,0,1,0,1,0,1,1,0,1,0,0,1,0,1,1,1,1,0,0,1,1,1,0,0
1303.2727272727273,466.78252117867703,1252.7272727272727,466.8112886603957,1.0,0.0,100.15164693148584,0.6187333972698814,0.0,0.0,-0.0020196972517200987,0.04707388476029443,6.351937240894086e-05,0.01787159413971299,0.006858125878441132,0.01769258105644919,0.04133009464309487,0.054518631335771374,0.03993354009051529,0.05080415841574788,0.0620834328623876,0.08670099909534845,0.04928450042083747,0.06657763040846626,0.041397925752519465,0.05264420058234087,0.06313383100064497,0.08791968388201196,0.3074184753401763,0.43633116434592756,0.35630702014788157,0.4845664230007031,0.4952400629194894,0.7453621357746797,0.0724558232464302,0.09216844521821754,0.05491011687752703,0.07940819354478187,0.09165105026695403,0.12103578432211902,0.43654552981890776,0.715696802754179,0.5073337056890049,0.6894694581240626,0.372519041508926,0.4318799586451799,0.6369566417654265,0.8071804619687829,0.49867835430870605,0.5119804329859166,0.0006244880984422041,0.0013789788987004148,4.460864006643181,9.07355277903952,63,154,56,0,0,0,0,0,0,0,1,1,0,0,0,0,0,0,0,0,0,0,0,0,0,1,0,0,0,0,0,0,0
1303.2727272727273,466.78252117867703,1252.8181818181818,466.8587668932738,1.0,0.0,99.70741950830475,0.37006731944062426,0.0,0.0,-0.002698003704676858,0.032464730581710545,0.008940889480174253,0.03203390088837701,0.005027859830457259,0.026325527783329465,0.04099498720616474,0.043018560953238257,0.0649156293895528,0.08740992698661816,0.0673565837219027,0.08762227834785462,0.04611048292853142,0.04941332653966892,0.06702460968895367,0.09190504152732308,0.06896631296069353,0.09030241936313979,0.2978219709861033,0.3152056104506645,0.46423472586459485,0.521819216980403,0.5808317378887061,0.7667871214867434,0.09173811736167532,0.11637837446063298,0.06013591039263952,0.06941873847607742,0.1106742146950417,0.13463717548639376,0.5101255087901206,0.6581345257843306,0.6102647116660121,0.829093711132948,0.42876668174740645,0.47555131951098817,0.7547491020112332,0.9482066981343085,0.27147426201985175,0.4381241477413809,0.0006106099331677845,0.001210128309583018,4.002715034618187,6.7182723040575265,63,190,104,0,0,0,0,1,0,0,1,1,1,0,1,1,0,0,0,1,0,1,1,1,0,0,0,1,1,1,0,0,0
1303.2727272727273,466.78252117867703,1252.7727272727273,466.7828017211901,1.0,0.0,99.69553406716132,0.3687958521936199,0.0,0.0,0.009102341840311392,0.048317755252033766,-0.0026363145118577912,0.02464153259443503,-0.02121323216516625,0.06056825835089524,0.09402604820787787,0.05705517461581882,0.15619580390809373,0.10106296327332025,0.13800783136229006,0.09036631553846267,0.10075781742341809,0.06550464975336305,0.15798699196677682,0.10101344362413348,0.14461896665738283,0.10158917392138556,0.6251982762858642,0.3944707999905703,1.265775710072189,1.0326276645556318,0.9771093474450112,0.8022056542313976,0.20964527638132618,0.13539558037648322,0.11588469160291813,0.07130050208606938,0.24110550708096962,0.15036454135601346,0.8889052835044389,0.8816840807410048,1.2881962871493753,1.0836236394897618,0.8238119992077855,0.7579859577288901,1.5384517045628299,1.3104962087578795,3.286214952287955,4.228849240387562,0.002581944105203429,0.002980409090635542,9.529547964559859,8.915542425870322,52,165,48,0,0,0,0,0,0,0,0,0,0,0,0,0,0,1,1,1,0,0,0,0,0,1,0,0,0,1,0,0,0
1303.2727272727273,466.78252117867703,1252.7727272727273,466.7828017211901,1.0,0.0,99.687791161222,0.36659206930047233,0.0,0.0,-0.013476943317546224,0.028322673594394242,-0.002928448498187432,0.013085767119192319,0.007025129223008909,0.02347082077564539,0.025784715796802374,0.025118590917750983,0.03583368487561722,0.037048119083375304,0.03414341401983775,0.02885871093489525,0.031140169845658802,0.036092683205259254,0.036643200632396185,0.03858191945119529,0.0371784523592028,0.034736541007638976,0.16163829793003234,0.1250709615670879,0.24558138257681217,0.21886112442451175,0.24955390546549233,0.18898182817625472,0.05008293189065049,0.05382071155653904,0.03450002925485275,0.033158968648616206,0.06133640305231038,0.06266719572728842,0.18816284649324955,0.14757611813585864,0.4148981456246755,0.5090373561591011,0.3718626577877097,0.42634074446172215,0.5614705113171046,0.6599192501111885,0.622619675657548,1.7166259287197458,6.98998711833193e-05,0.0001134980437491775,1.1193709509752654,1.7300289064057905,73,182,85,1,0,0,0,0,0,0,1,1,0,0,0,0,0,0,0,0,0,0,0,0,0,0,0,0,0,1,0,0,0
1303.2727272727273,466.78252117867703,1252.7727272727273,466.7828017211901,1.0,0.0,99.69302772025962,0.36463069072120313,0.0,0.0,-0.009896019823975873,0.08554805964445396,0.013225325399423692,0.027348129405778996,0.006939948875275196,0.04573021559504766,0.09461886632035205,0.11119188394259519,0.09341304154882896,0.133678388075927,0.13964811133251576,0.175928298235077,0.10773396756451578,0.13031584996994122,0.09496705337494453,0.13589290341447624,0.14243546202835436,0.17948929025519242,0.5655899284386023,0.6112333336500866,0.6959145950128698,1.031730966041278,0.9219926997708133,1.0080447598743063,0.17596769006105506,0.22970925203317233,0.10651241554731664,0.11602703502587006,0.2125903134612347,0.2513567147209587,0.7697918165918011,1.007337410078457,0.9944061628873061,1.4192833510446363,0.7781113644218828,1.005839954874684,1.2818998105586636,1.724265371369225,0.3202424706995907,0.31073757899755516,0.001149642187356451,0.002158943969336695,11.882830030202438,16.90065568298214,50,170,59,0,0,0,0,0,0,0,0,0,0,0,0,0,0,0,1,1,0,0,1,0,0,1,0,0,0,0,1,0,0
1303.2727272727273,466.78252117867703,1252.7727272727273,466.7828017211901,1.0,0.0,99.69974262423352,0.36988980396987214,0.0,0.0,-0.011009924859272774,0.04839493777702808,0.00599171873930155,0.011871239345510123,0.000793767597397432,0.013446127667026386,0.0471243338095551,0.04371446284892028,0.0536937328913176,0.05350594499969389,0.051445443389427956,0.04565964277618196,0.056845042057113986,0.05759310876049969,0.0545679942309244,0.05418750596332168,0.05252773670875262,0.04629772824194015,0.2830750188834211,0.24901433773982815,0.36906039068621244,0.3320595914121878,0.349085222969264,0.2939220819853373,0.07478163662438703,0.07424774945999503,0.05849401518024441,0.053317233458068256,0.09654798091061702,0.08959119343373521,0.3120860397011429,0.2657162188740641,0.4883515498114371,0.5860666203061139,0.49541877704936804,0.5308815154788987,0.7075070828290242,0.7793101341520166,0.5967020497647356,0.8615386564939764,0.00013784561174083764,0.00020459680839202395,3.0287062786817156,3.7525707788344547,65,180,110,0,1,0,1,1,1,0,1,1,0,1,1,1,0,1,1,0,1,0,1,1,0,1,0,1,0,1,1,0,0
1303.2727272727273,466.78252117867703,1252.8181818181818,466.7543084060224,1.0,0.0,99.68624918443412,0.36553077751120017,0.0,0.0,0.01895916287025083,0.04209103170540431,0.0007561500644007458,0.031718358989592986,0.004229884564715177,0.02609323385018834,0.04208158189491756,0.03491388693137075,0.06906147719571677,0.07584008676999657,0.0710304891996555,0.06963681224692118,0.05172042923354317,0.04916179922510819,0.07242992261656313,0.07904462967737598,0.07338200798107125,0.07199135989178927,0.30322686951977956,0.25655153041122314,0.5537040212334323,0.5421838442629345,0.5560634459066924,0.5000622276657848,0.09700190543993359,0.10432217765958939,0.06259377544189705,0.0543086649445998,0.11744904884044813,0.11548236987880565,0.4495311934316946,0.4539945948892352,0.6848844597317054,0.8718691385996132,0.49815127340619586,0.4923124074156443,0.8597228855589347,0.989478689409487,0.26962578866830333,0.2942257019776137,0.0002718855527573355,0.0004863396363533061,3.31071325809858,4.3182936557448155,63,190,100,0,1,1,0,1,0,0,1,1,0,0,1,1,0,1,0,0,0,0,1,1,0,1,1,1,1,0,0,0,0
1303.2727272727273,466.78252117867703,1252.8636363636363,466.7258087137248,1.0,0.0,99.6913225233417,0.3672362716170196,0.0,0.0,-0.01442029467728731,0.04410603933873355,0.0036998886421173373,0.043844183852356375,-0.00966517690301876,0.030328861593542058,0.06625393638963546,0.08023666505295574,0.12293217662326349,0.18975791688716442,0.11384061836488377,0.1530945559888234,0.07170769489988445,0.0883264190253129,0.12575532341166923,0.19275882712674697,0.11559146568534145,0.15490912289423772,0.4742200268051338,0.5887182032322781,0.6177989514501022,0.7412730300937599,0.6686653192896453,0.7902069394771947,0.15997574617225763,0.23080680339567947,0.0994380317356225,0.12037590544597843,0.19162785694866155,0.25775269962778197,0.6084874511692079,0.7462519212810844,0.9054629015027693,1.381446353719803,0.5996216262072347,0.6960567487090985,1.11509525495375,1.524771255019754,1.0791665379823592,1.6182965285307607,0.0021352956208504467,0.0045976121571237585,11.5465093752714,18.209610581847954,53,178,98,1,1,0,0,1,0,0,1,0,0,0,0,0,0,0,0,0,1,0,1,0,1,1,0,0,0,0,1,0,0
1303.2727272727273,466.78252117867703,1252.8181818181818,466.7543084060225,1.0,0.0,99.69820460367673,0.3617535243121203,0.0,0.0,-0.005055391662254578,0.06711039024687891,0.006691047209615986,0.01758783634594372,0.005198713239693896,0.0212845974347865,0.05852659208979378,0.05965432945928507,0.07444418360640354,0.07461781019720866,0.08409595623637066,0.08777265494755336,0.07189697440945347,0.07909063656133578,0.07544234090204255,0.07586673129278694,0.0857374024706306,0.08876932473597574,0.4628069304425489,0.5743406265017968,0.6445094275694194,0.6195699259590791,0.6390931059782644,0.6724052755540483,0.10962112391008633,0.11346001993087128,0.0840699100634552,0.07820747990930356,0.14005914375131254,0.13571750436084198,0.6279049402063264,0.6908506474575158,0.8308053267024325,1.0347033769179408,0.6974104966276585,0.7643812823194487,1.0965017942885493,1.2754812782593412,0.33631565498912425,0.3029169074677655,0.0016148620663613362,0.0029020569275582985,7.111517344587532,9.52661631672666,66,170,80,0,1,1,0,1,0,0,0,0,1,1,0,1,0,0,1,0,0,0,1,0,1,0,0,0,1,1,0,0,0
1303.2727272727273,466.78252117867703,1252.909090909091,466.69730264312886,1.0,0.0,99.69866558438547,0.3622074103777048,0.0,0.0,0.005420897013538651,0.049679226431759115,0.004776611520148946,0.01305576981832841,0.01312150290479769,0.02430767983731025,0.07760623800584387,0.06328932780294606,0.10932775291322122,0.08948973868596191,0.10722357970588625,0.08897512819614659,0.08441038989479999,0.0730738716877632,0.10990012250567188,0.0897344819311969,0.10896630949047074,0.09096447411301456,0.5719349034187481,0.4526368424852975,0.9561512910206997,0.8772505572126816,0.8268189439064888,0.6767860502194524,0.14652582956531138,0.11974941294163259,0.10363906082683562,0.07845379722937693,0.18095429241383568,0.14113661182922027,0.7752710169528991,0.703208431966806,0.8020894492334903,0.7588305648493375,0.6334443342430058,0.5381068012787965,1.031907402241429,0.918410059702305,1.302464058283188,3.4526354947395057,0.0010381312585860246,0.0015197107929937196,9.465403606172627,10.96691279281226,78,173,94,0,0,1,1,0,0,0,1,0,0,0,0,1,0,1,0,0,0,0,1,0,0,0,1,1,0,1,0,0,0
1303.2727272727273,466.78252117867703,1252.7727272727273,466.7828017211901,1.0,0.0,99.7079174503747,0.3794155722686314,0.0,0.0,0.0006920477370529706,0.07098664883786257,0.012598745269553329,0.054202924337334285,0.003378266006753086,0.02898369120139926,0.07779124782468513,0.07280208425687189,0.12060970719026266,0.15459808734502895,0.1070958875105885,0.12920173301902768,0.08963032687598259,0.09083718687197913,0.12443819087919512,0.16118895649649684,0.1084701811885504,0.1311691678725822,0.42713524303629097,0.3507550748565921,0.6880057882621121,0.7130837360414488,0.6681710614427689,0.6270629362912763,0.1666894094629691,0.19981531706785127,0.09765419430150954,0.0969422478171,0.19532096769603371,0.2200820421700148,0.5814468964719943,0.5229655615841858,0.8478877165152091,1.0888280894467264,0.5752626484948955,0.5507614161082088,1.0518928746484935,1.1953589964665474,1.4629752277237982,3.0505371299318904,0.00042531467427519204,0.0006877406626848879,9.088580958651523,12.819279820730362,56,173,68,0,1,0,0,0,0,0,0,0,0,0,0,0,0,0,0,0,0,0,1,0,0,0,0,0,1,0,0,0,0
1303.2727272727273,466.78252117867703,1252.8181818181818,466.7543084060225,1.0,0.0,99.68834202735019,0.3606611361604532,0.0,0.0,-0.004013777800884218,0.025154552490040897,0.007597576513553154,0.01572224587608917,0.002744474143425764,0.013729026828007827,0.0498006543262538,0.04442099273763051,0.06000889560033899,0.05559824808478523,0.06282453717661904,0.06828185626644574,0.05289698143315349,0.047802588314170835,0.06119797617370086,0.05692852885713522,0.06361404267449777,0.06888550739248696,0.34547249492140814,0.2942463177156433,0.42715316279477666,0.41366475116929535,0.4316689852324863,0.4689176273696257,0.0895681041133213,0.08608812913797455,0.05248648834896651,0.051667181438333674,0.10424277904979272,0.09990726884346517,0.33274923441695964,0.3537478876137673,0.6176598246322428,0.756911205207929,0.4437515660707749,0.5443176591272569,0.7651549037097006,0.9280637026185501,0.26803807179871736,0.23731612878812033,0.0003493757992003187,0.000634985114888365,2.6124983247403404,4.165196623083499,63,168,70,0,1,0,0,1,1,1,1,1,1,1,0,0,0,1,0,0,1,0,1,1,0,1,0,0,1,0,1,0,0
1303.2727272727273,466.78252117867703,1252.7727272727273,466.7828017211901,1.0,0.0,99.69563782942451,0.36052723259721114,0.0,0.0,0.004030581013112233,0.05642108549370927,0.008600966626463386,0.02177331605210013,0.004313166584975104,0.03595755012018828,0.05432485937551624,0.05258971485102464,0.0659897910161479,0.06579676176107022,0.08509511303270502,0.09786395333205815,0.06387375080883091,0.06912065421939036,0.06799187505686932,0.06775465854975367,0.08901265054800998,0.10078518228653686,0.3994177922225463,0.3821601016533497,0.5532251880305036,0.6599388214926423,0.6559246850000325,0.7152584903718712,0.1030361069294733,0.1163466176979552,0.07731575629660367,0.07768800736048723,0.13188036873288178,0.1368323294431179,0.5935270913705846,0.6590056073197506,0.6278101028396936,0.8775354039225823,0.5415900417304871,0.6734752270533375,0.8420959831223809,1.0955200532617357,0.7825373512523567,1.747188895590739,0.0007095524237027563,0.0013263167967138363,5.741250045048427,7.286606808368318,59,190,108,0,1,0,0,1,0,1,1,1,0,0,1,1,0,1,1,1,0,0,1,0,1,1,1,1,1,0,1,0,0
1303.2727272727273,466.78252117867703,1252.7727272727273,466.7828017211901,1.0,0.0,99.68742901882197,0.3648837805554486,0.0,0.0,0.014705395663803756,0.06047026187720717,0.009861539835482654,0.03295633404477654,0.016114117745820444,0.05156377297344671,0.08222979812426906,0.11086801932678068,0.10480561823055595,0.13837670943204353,0.10723607669667472,0.12957778401575834,0.08905044709563414,0.1221934656858594,0.10657056505523518,0.14111656233189937,0.11138231081659423,0.13690264924418494,0.588158189722009,0.6801491846154417,0.8948536469818626,1.1088898788788595,0.8703616249428073,1.0610223778999186,0.13625698146951562,0.1748933101621542,0.11930975948924548,0.14790959538402182,0.1833735026351491,0.2270746162124298,0.8372603739249616,1.075912164972612,0.7927714875647706,1.089308996223892,0.6868580721163284,0.8494788858525819,1.057027163821441,1.3744463957025796,0.6403546201794726,0.887149549092117,0.002300886263897271,0.004560254190796665,17.172014851665338,29.78816544279427,48,165,105,0,1,0,0,1,0,0,1,0,0,1,1,0,0,1,0,0,0,0,1,1,0,0,1,1,1,1,1,0,1
1303.2727272727273,466.78252117867703,1252.8181818181818,466.6499285804679,1.0,0.0,99.70496292303231,0.3768113838277756,0.0,0.0,0.0062987868345006056,0.10623630161756786,0.011299518313589782,0.034955779529843536,-0.0012738592196429002,0.03173057966477132,0.08225314999858697,0.09258272816527952,0.08980373428379196,0.11449187940567396,0.08769117263733883,0.0975098645744222,0.09945488538790848,0.1288747575041573,0.09205360852168827,0.11837774672909519,0.08992203454483638,0.10041725011743145,0.5606719494535095,0.5683517159986063,0.5864030636182318,0.5862588036084876,0.6143827127188984,0.5860593260618452,0.13547735675138708,0.18231238833800545,0.09090865443720818,0.08549167339782185,0.16971531117387853,0.1955541777150085,0.5250291361004314,0.48249241767972834,0.8430127141186318,1.245050051378357,0.7190602108702779,0.8134215894629268,1.1411238428545198,1.460334821517805,1.0259896913181632,1.47150499981656,0.0005806457573791303,0.0010965011790492658,7.439861895985022,9.300670713999557,48,177,67,0,0,0,0,0,0,0,0,0,0,0,0,0,0,0,0,0,0,0,0,0,0,0,0,0,0,0,0,0,0
1303.2727272727273,466.78252117867703,1252.8181818181818,466.7543084060225,1.0,0.0,100.11339671417183,0.19388564357544555,0.0,0.0,-0.011162828498448763,0.037313189740037896,0.015237605697755422,0.027304121178491528,0.015265449948259886,0.029481450889047783,0.0537215321118838,0.050905533059977456,0.08931131006544216,0.07849068751158314,0.06232487146944352,0.0611763515438314,0.05882066668645019,0.05922234635969247,0.09151144533388032,0.081966828769875,0.06597009237656587,0.06601513316508462,0.3599807643079659,0.32592594524429624,0.7098748019095514,0.6284506147447412,0.4624588039890712,0.4491482425795486,0.10687971412888632,0.10058532569357254,0.07475665002648624,0.06009200263897904,0.13225803260875368,0.11495973158795715,0.494866147401625,0.45999093914858924,0.7045445777492215,0.8473441132645297,0.5796168116771422,0.5981065799164893,0.923558075113725,1.0263566297172044,2.5845847663550496,5.577133685780971,0.0004684400301648347,0.0009154399356391415,4.614158295116811,5.303726123426609,41,174,66,0,0,0,1,0,0,0,1,0,1,0,1,0,0,1,1,0,0,0,0,0,0,1,0,0,1,1,0,0,0
1303.2727272727273,466.78252117867703,1252.7727272727273,466.78280172119014,1.0,0.0,100.1493341359048,0.6184643302156971,0.0,0.0,-0.004789845654389237,0.05978425753552951,0.0027830392224460227,0.01161921089930597,0.011364111675461525,0.026745577889664227,0.03901776234216508,0.05066334182137995,0.04328996818039859,0.05687418588855007,0.051570461171769215,0.06863987459587273,0.050501349471906494,0.0713006241247714,0.04473736422932163,0.056912788784435585,0.05432038341485922,0.07245234983567315,0.23577480610352347,0.25456310609218746,0.30306645383877606,0.3845010899300317,0.33243541516778935,0.42191784852949005,0.07941969214459031,0.10176530063927364,0.04192980702578167,0.051290051192604796,0.09028153676766575,0.11354772335728817,0.2907312113374804,0.381245029598402,0.4375108248982217,0.61664560988379,0.3093834150034643,0.41880908094789504,0.5383059476876182,0.7433740285436303,1.3062480259494758,2.294504048875699,0.0002098469468981657,0.00044604796873845277,2.1214212235898766,3.618077874360292,69,175,110,1,0,0,0,1,0,1,1,0,0,0,0,0,0,0,1,0,0,0,1,0,0,0,0,0,0,1,1,0,0
1303.2727272727273,466.78252117867703,1252.7727272727273,466.7828017211901,1.0,0.0,99.69775003104783,0.362227577811507,0.0,0.0,-0.0015549520828938132,0.03215345745706801,0.005219920334419543,0.013020275411868206,0.006103162643427646,0.013398718742724058,0.03828621629356565,0.03348133166153542,0.03674216736211521,0.038436069347097965,0.062022918503498795,0.07032314321977813,0.0435048095874686,0.04132239449663756,0.038123204199572804,0.03954947767453358,0.06296353251604828,0.07093341145358367,0.30938382055920816,0.3200835595281706,0.33211486585846045,0.40310510570973973,0.4966703925268726,0.6355913432012126,0.06635168874127545,0.06893524893194121,0.05542499759343107,0.0581901867552676,0.08759468387066414,0.08901471404582648,0.43238831546531764,0.6073661662939611,0.47370979021091486,0.5397557265851233,0.39074855366247313,0.3841595121598762,0.6278677031958315,0.6485765826407197,0.25296719313075333,0.19089233345360127,0.0004937341214077035,0.0011047235762086203,3.0963426227939936,5.4571005862038335,69,179,60,0,0,1,0,0,0,0,1,0,0,0,0,0,0,0,0,0,0,0,1,0,0,0,0,0,0,0,0,0,0
1303.2727272727273,466.78252117867703,1252.7727272727273,466.7828017211901,1.0,0.0,99.70323503120427,0.3609582666281764,0.0,0.0,0.003949132578306197,0.09583822695620654,0.015467674725727238,0.054914800796469175,0.0008213936352080228,0.044245123213306994,0.09713435071088047,0.10600153017176037,0.16122268077513308,0.21492160638249866,0.12375952202615567,0.14983379958929288,0.11052843413102419,0.1322959727476129,0.16567472484814172,0.21876510161723733,0.1263337097848274,0.15393180560117675,0.6610477029528393,0.6185679676967839,1.0643526160914947,1.197407521559021,0.8903621752858057,0.9950248522612444,0.20872034011385765,0.26198656314820884,0.12322993191454913,0.13106605782112762,0.24647917526160346,0.28928207253499966,0.8933566623880139,1.0058801424925157,1.0260397335106535,1.3801335153346066,0.7079627865743198,0.7759475317809431,1.2755257589333842,1.5585999545194416,0.4372462695745823,0.6280110433798588,0.0020985837469830095,0.003706266687273129,15.695782280552105,25.39802194558755,50,163,80,1,1,1,0,0,0,1,1,0,1,0,1,1,1,1,1,0,0,0,1,0,1,1,1,0,1,1,1,0,0
1303.2727272727273,466.78252117867703,1252.8181818181818,466.7543084060226,1.0,0.0,99.69740804892898,0.3785539385581483,0.0,0.0,0.004536940503937488,0.03997453519276877,0.005021426280440482,0.03031725456143509,0.0034152763661404683,0.0198449376667249,0.061866766710937895,0.06599379037372785,0.07708987746932107,0.09264750446981543,0.09024469748759559,0.10937933807485078,0.06660347722174823,0.07299785885527323,0.07980146437484938,0.0952278157090867,0.09127452883025682,0.11024084878336696,0.5281396989046842,0.6215578875871104,0.7187350464417919,0.9655553521465917,0.75535272182214,0.95204510768663,0.1067939997474079,0.12245821334344645,0.0907689345141653,0.10507786176027724,0.14261778859796556,0.1590226867465585,0.7835051738543725,1.0570873460331391,0.664232493721665,0.937436027407647,0.47487518876238893,0.6052267896216413,0.8232870087776594,1.1103374382560478,0.3087135827498997,0.297431489888175,0.0017613976049119814,0.0037072347215057156,9.189719254493863,15.149575471378968,65,190,93,0,0,0,0,0,0,0,0,1,0,0,0,0,0,0,0,0,0,0,1,1,0,1,0,0,0,1,0,0,0
1303.2727272727273,466.78252117867703,1252.7727272727273,466.7828017211901,1.0,0.0,99.69348614248196,0.36857329705392905,0.0,0.0,-0.006552995630956979,0.10583189110827182,0.015678635740801465,0.037248930299891396,0.016523276941689466,0.04568536974902589,0.0712130621601851,0.08288535618835592,0.1292248854106919,0.18813401741078273,0.11139962183668284,0.14912123803434404,0.0946299555368514,0.11846692488990286,0.131909874209819,0.19039587229813723,0.11583870396053925,0.153353829547764,0.4898855061242564,0.6105056136729302,0.7223732706736974,0.8918734196458648,0.6607923155433832,0.7804613870110185,0.17429114373429141,0.24362855967564592,0.10030850292651426,0.11736798107059132,0.20480154152340369,0.26744913615247473,0.6518046045883437,0.8341086443339141,1.0029371762945005,1.4250776039746589,0.6796559586271093,0.7514949524980292,1.2382299821483722,1.5893398976387891,0.7810778453406578,1.018103580949974,0.002159394615603449,0.004799615722068239,11.300429368460355,18.91815507330891,49,178,86,0,1,0,0,1,0,0,0,0,0,0,0,0,0,1,0,0,0,0,0,1,0,1,0,0,0,0,0,0,0
1303.2727272727273,466.78252117867703,1252.7727272727273,466.7828017211901,1.0,0.0,99.6923143735708,0.3627562473540692,0.0,0.0,-0.0021168286744303677,0.03368951100735247,0.0066160051475548645,0.009803833743410656,0.008760477373170083,0.01907859385219482,0.0423332067420471,0.03930523756125043,0.05325983579932183,0.049632039603709446,0.05862742115423905,0.06658707713457267,0.04802535448324603,0.046285734092459764,0.05408775351391364,0.05006917652740654,0.06063597458099521,0.06796414433555177,0.30485693112257306,0.2596989758551801,0.4289301837353859,0.4531046338587894,0.4111587370919006,0.5152291936574638,0.07398723538591621,0.07526589610134082,0.05975230781448116,0.05889356305262049,0.096565870031477,0.09398013297465059,0.38716069864960956,0.430716228795334,0.563830347146149,0.7142189164058734,0.49664385707032555,0.6064915371295582,0.7574455623298434,0.9315029579536537,0.6891054435577348,1.1107053049010664,0.00033449159704093033,0.0005992794383661009,3.475187010461441,4.390786121331357,69,162,67,0,0,0,0,0,0,0,0,1,0,0,0,0,0,0,0,0,0,0,0,0,0,1,0,0,0,0,0,0,0
1303.2727272727273,466.78252117867703,1252.8181818181818,466.8587668932738,1.0,0.0,99.69878025814597,0.3632110831787762,0.0,0.0,-0.016165477214518727,0.06576035084333672,0.021172407371489513,0.10695566967853995,0.007016612731724666,0.03555399081475311,0.0923377274060795,0.12085512466035771,0.10766604532828392,0.1705560368715912,0.13606653466213012,0.1815147920380812,0.10142400438880567,0.1316649635278605,0.11634031036843147,0.19728349572759418,0.1380100090634046,0.18344383237445286,0.5387423907936092,0.6731247928366022,0.6858663964781438,0.9137202769890971,0.8424678724600884,1.0554945092755512,0.18304790477161131,0.27408786050047945,0.09812581298596622,0.12053987576153477,0.21288464042760777,0.2955336606253084,0.6414817057554519,0.8782959093184179,0.9171697794129018,1.369543368384966,0.622916976433975,0.7515842249972168,1.1299877012649453,1.5458382197914835,0.6066693452033486,0.9507479947680301,0.0013978078276727741,0.003323045220342761,11.527207886275903,21.885764919926675,64,181,102,0,0,0,0,1,0,1,1,1,0,1,0,0,0,1,0,0,1,1,0,0,1,1,1,1,1,1,1,0,0
1303.2727272727273,466.78252117867703,1252.8181818181818,466.8587668932738,1.0,0.0,99.69504478263798,0.36814691355040047,0.0,0.0,0.0028919394261657056,0.08873228834656414,0.010018088787631435,0.021203890976888386,0.0103720956206333,0.030235763837774536,0.07417613126437651,0.09039406467135257,0.0852092496778226,0.09781086904600893,0.09664900609330815,0.11693224945387522,0.08833413031586429,0.11674174520510802,0.08669285341356237,0.0991821860940062,0.09915417541519243,0.11900493071823023,0.48951269487114646,0.5532887833834481,0.5940837133960108,0.6107703800698542,0.7376314944421843,0.8599970158559824,0.12671893285603603,0.15464835504752836,0.09898560794741752,0.11400126011644794,0.1626417519220775,0.19043026187513076,0.61498513652409,0.7082621601671568,0.7537766132943416,0.9902072210245784,0.7057100512214675,0.893896299298278,1.0412115328228013,1.3264378012277895,0.8278565675127209,1.4857200979040754,0.0009471833128352681,0.0018582682876427618,10.874693306911228,17.563352318588766,62,157,89,0,0,0,1,0,0,0,0,1,0,0,0,0,0,0,0,0,0,0,0,0,0,0,0,0,0,0,0,0,0
1303.2727272727273,466.78252117867703,1252.7727272727273,466.7828017211901,1.0,0.0,99.68151605310396,0.36240080989199563,0.0,0.0,0.010317254528867682,0.034588791807182405,0.0011693980555907318,0.02062118695625603,0.010484423855123687,0.034445161465554326,0.042430681497528294,0.045126084777596207,0.06909073443868384,0.09347352581446067,0.06072162675218474,0.0720004211925909,0.04854063035017972,0.05251678049035913,0.07046494197377949,0.09459917099128211,0.06465267231180877,0.07720170347383999,0.28541665545905526,0.30358953737107214,0.4763666648316747,0.5700769436706276,0.4304135812448264,0.4936775908222855,0.09017575091707393,0.11183649544566002,0.06012617284986796,0.07008262329049116,0.1091548258177094,0.1312788253796685,0.37515819844536435,0.4997375522960437,0.6330306817811269,0.8485307206817191,0.5066133601950671,0.5997993411876413,0.8191269549557902,1.031933825685104,1.369199860008636,2.173902200119319,0.00034278293355910407,0.0007068770501188928,4.0758570775320395,7.038260551675968,47,179,76,1,0,0,0,1,0,1,1,1,1,0,0,0,0,0,0,0,0,1,0,0,0,0,0,1,1,1,1,0,0
1303.2727272727273,466.78252117867703,1252.7727272727273,466.7828017211901,1.0,0.0,99.73404636168311,0.3935059979598979,0.0,0.0,-0.014008329508416333,0.13790658107272807,0.021925652228831808,0.05470133613854142,0.0035431929615113776,0.04924789897729629,0.09133790913264521,0.09693702801644047,0.1398792831355453,0.14903846971846618,0.11609555599184879,0.10658250235598422,0.11692908800626874,0.15171884680579564,0.14455808114824514,0.15579165303720516,0.12076198271530586,0.11231556835657801,0.6398267375735298,0.587376274467322,0.8447846599300317,0.7621628336779737,0.7270876733668533,0.626345354479735,0.1940142315266401,0.21090312800945715,0.11971037523556925,0.11179741974997644,0.23054305594580285,0.23604427178108076,0.6940976308979677,0.6117514971852736,1.1213175534240827,1.234979457557852,0.8507390897791726,0.8494769804256285,1.4207846229773538,1.485253324877088,0.7161519945278477,2.083838998023076,0.0014184671634956177,0.0023998976555103524,13.201032747274866,19.784156534863108,64,180,83,1,1,1,1,1,0,0,1,1,0,0,1,1,0,0,1,0,1,0,0,1,1,1,1,1,0,0,0,0,0
1303.2727272727273,466.78252117867703,1252.8181818181818,466.7543084060226,1.0,0.0,99.68775833479526,0.3657618513525708,0.0,0.0,-0.023124787705211865,0.060083342880002444,0.004236856426938486,0.06163126663808341,0.0035740866122647543,0.03944387791209112,0.05197029408331965,0.07622149641833074,0.07731407007192674,0.11988674039452138,0.08159102991459179,0.13001130312069847,0.06310741617798797,0.09288929179947966,0.0832998105078245,0.13100271956312579,0.08407753925579116,0.13422396802948275,0.40338157340449166,0.5927249417956878,0.5704673702024399,0.8268428300506642,0.6473913337656418,1.0359523651862168,0.10252800328032025,0.17304791595818492,0.08601011464919885,0.11818401413170218,0.1362304360634257,0.20787219705852877,0.6433102992775178,1.0465695317701533,0.5721415024395219,0.9646315245100924,0.4689312646873163,0.5798153627767708,0.7557309433440221,1.114043925922336,0.23920148704892794,0.3504129973036666,0.001469235448898453,0.003951707585982009,10.099044556322504,20.487372355850727,67,161,90,0,1,0,1,0,0,0,1,1,1,0,0,0,0,0,1,0,0,0,0,1,1,1,0,0,1,1,1,0,0
1303.2727272727273,466.78252117867703,1252.7727272727273,466.78280172119014,1.0,0.0,100.14517840962381,0.6208576576810989,0.0,0.0,-0.0014884938015459774,0.04561763164335555,0.001323495565876312,0.021949412229805586,-0.008100813967845864,0.02530079146618387,0.03287759438066793,0.034271430533570464,0.05313611874364663,0.05758619599489878,0.0475290855954896,0.053802329942622705,0.04169902505124416,0.050658740292823655,0.05507419958303041,0.05978052013134688,0.05041099973785903,0.05746814620609694,0.20810694081561412,0.201632932495038,0.4324985096798798,0.5429577634403897,0.3662488310883624,0.4887018284240677,0.07107287599102624,0.07874238400115494,0.04898591134400777,0.05571064048924602,0.08764102768494161,0.09517033123471713,0.364290923901123,0.5012583203616453,0.37976127230984863,0.5027516019874743,0.2727819643850326,0.36257937008547836,0.46958256395101033,0.6180934139200878,0.6934952242420883,2.0254731081994404,0.0004174375857335793,0.001194836658354873,2.65500644958305,4.737953588933218,54,180,85,1,0,0,0,0,0,0,0,0,0,0,0,1,0,1,0,0,0,1,1,1,0,0,1,1,0,0,1,1,0
1303.2727272727273,466.78252117867703,1252.7727272727273,466.7828017211901,1.0,0.0,99.69418003246942,0.35997377474935593,0.0,0.0,0.001879685422606093,0.10370031558045488,0.03786565496519373,0.11257991967856973,-0.015717274532405175,0.07163263101638083,0.21131966828411447,0.2337332278620555,0.30510881936737666,0.39617659604920047,0.27054824025014024,0.3430666738673738,0.22089287256584866,0.24688117047975963,0.3132620096838408,0.40692734883717646,0.27380942194827385,0.34788753900227176,1.540846584825719,1.7311932385268622,2.3699472682496854,2.55434632242442,1.8573645286353793,2.038291833900367,0.37096240530908653,0.47110146779023193,0.3047774363626348,0.3418109527736664,0.48676406586008036,0.5760284517497652,2.0832040315501503,2.369617900128198,1.8111301178662709,2.530755121741786,1.3184751524641398,1.3630316457761011,2.2903477071131157,2.832117242171354,0.7543325455855429,1.156532227445685,0.029531407425021184,0.0641792766573957,100.16438082868781,166.88530189534112,67,165,50,0,1,0,0,1,0,1,0,1,0,1,0,1,0,0,1,0,0,0,1,0,0,1,1,0,1,0,1,0,0
1303.2727272727273,466.78252117867703,1252.7727272727273,466.7828017211901,1.0,0.0,99.69904186351896,0.3621082500583442,0.0,0.0,0.004169425091660716,0.037761689938489856,0.0026420271019476503,0.013906322328308815,-0.0011034035321250814,0.012341216558757532,0.04397972630295311,0.04695965182791084,0.0618093001002737,0.060745918138606685,0.06650435833522637,0.07489924334821614,0.050241939698664945,0.055017800920270137,0.06254354084854229,0.06154149619973852,0.06699933421055111,0.07539097189607695,0.3103893442745195,0.28326719731028055,0.7785768692432685,1.0398408467909777,0.6712972719188134,0.8643342186514774,0.07873908731899477,0.0804299607295638,0.07111877230137231,0.07544283861204125,0.10745931933100922,0.10883848314944637,0.676683992017309,0.9328336203955978,0.5576105499464723,0.629926998980705,0.5091965589376457,0.5514443527262257,0.7572810024296687,0.8347994056698141,0.3647172656039372,0.4463794434121429,0.0006873504625417727,0.0012382245296683556,5.180895295028576,7.810521897289183,78,170,75,0,0,0,0,0,0,0,1,1,0,0,1,0,0,1,1,1,0,0,0,0,0,1,0,0,0,0,0,0,0
1303.2727272727273,466.78252117867703,1252.7727272727273,466.7828017211901,1.0,0.0,99.69303115592714,0.36514305286213183,0.0,0.0,-0.01356386931201174,0.0921817165389788,0.017513900044015658,0.057087351405820046,-0.004231478944155046,0.07018178113104091,0.08773095063422484,0.08828012862260864,0.14433615618514983,0.2099027014682537,0.13485182314306263,0.17262158937541172,0.1049709522408717,0.11396161748528609,0.1473509210942391,0.2159883035307591,0.14032637379622065,0.1819740240432264,0.6232395190765033,0.58105887465625,1.01276748790888,1.1104100254560034,1.0106926753964502,1.1154281742692465,0.19711601148145738,0.26274407089039054,0.1268939410375238,0.1452656121232616,0.23638495402624454,0.29855158842045576,0.8950899096828647,1.063208446850617,0.9376058158574458,1.2693045189419068,0.6927674089391581,0.7208919141879252,1.1934224794811454,1.43578380264724,0.27601925532999433,0.275298166784065,0.0018689798489327238,0.003350479010897342,18.01815525506636,31.089168365542555,54,182,100,0,0,0,1,0,1,1,1,1,0,1,0,1,0,0,1,1,0,0,1,0,0,0,0,0,0,1,0,0,0
1303.2727272727273,466.78252117867703,1252.7727272727273,466.78280172119014,1.0,0.0,100.14501354483677,0.6207134344340886,0.0,0.0,-0.00802042292595739,0.08087871280502269,0.0023895905796773153,0.03844286172796906,0.01714692720212105,0.052384440671059365,0.05631864178709098,0.07253622284859014,0.050082071510828864,0.06144902866883856,0.09025919227301306,0.13021889528361133,0.07073814648248061,0.09971076993871264,0.054626461844022776,0.06895543627890861,0.09572063414816528,0.13754608429356943,0.31924155577835495,0.35574886378316123,0.35520279815643363,0.3960233957547266,0.48880780708019506,0.6652540605385623,0.11873847372307313,0.16657100738313993,0.059816106074805656,0.07299207382676783,0.13419784623665482,0.180876861088292,0.38506359039334265,0.49033806125027746,0.6300428641254071,0.9133586230066113,0.40414189362831965,0.5262182708000621,0.7561496349929471,1.0481630651188532,0.5316022222676599,0.45553265976387214,0.00028450100034363895,0.0005951333821793253,4.316074022062783,6.769411454790885,44,167,50,0,0,0,0,0,0,0,0,0,0,0,0,0,0,0,0,0,0,0,0,0,0,0,0,0,1,0,0,0,0
1303.2727272727273,466.78252117867703,1252.7727272727273,466.7828017211901,1.0,0.0,99.69957068081875,0.3684297950667706,0.0,0.0,-0.0035023900474697497,0.06936888369450506,0.008366995692708644,0.016718233129900926,0.002175975176863316,0.01780866196200143,0.05369828348546434,0.04826714698323783,0.06072285744587403,0.05536788642952288,0.07150027531190345,0.07174524284987846,0.06805360259147794,0.07292604109828194,0.06202723310194025,0.05695370726488597,0.0726759934214035,0.07267173524448622,0.37520787794886024,0.28830404107906693,0.48216840450129506,0.39350704723747415,0.5095199299985539,0.47650142176675947,0.09595953517207043,0.10239016475984629,0.06799040787150856,0.05739218236136154,0.12007921298117674,0.11468743205069147,0.45173065986332744,0.4152206783388276,0.69897004664384,0.9935889839717353,0.602381903707898,0.749758573070749,0.9332365421742493,1.2361039863997811,0.30559210027910144,0.3309574861505561,0.0003318515879090078,0.0005001527407800517,3.8237202621977415,4.357245536735106,41,170,60,0,0,0,0,0,0,0,0,0,0,0,0,0,0,0,0,0,0,0,1,0,0,0,0,0,0,0,0,0,0
1303.2727272727273,466.78252117867703,1252.7727272727273,466.7828017211901,1.0,0.0,99.69702945260052,0.36315869688410335,0.0,0.0,0.00855038367122245,0.025688885084897178,0.0020876222152768314,0.014839930692642347,0.0045086505052406595,0.01895222265410399,0.03644735782726346,0.035832275899396124,0.04709835298112197,0.057109480956055815,0.04116346855369378,0.03936343915077537,0.04042460562070565,0.041200268567421115,0.04848279488155651,0.05780944944837128,0.043069383471134565,0.04193357759563842,0.2274807909159975,0.2127962747409317,0.3447136528596316,0.3824095152771879,0.32118587028997936,0.29189138064704073,0.05819072197380879,0.06518301234117682,0.0497040514610027,0.05036344224095386,0.07781244465948481,0.0810709765892609,0.2847198436939934,0.2934156671357793,0.435131059227956,0.57564906593801,0.4476341002113401,0.4855300115987528,0.6361992436986926,0.7422287318740652,0.6270071308933372,1.2243390363643623,8.509759515019507e-05,0.0001237913104547823,2.4014427043488764,4.04870748366499,69,187,94,1,1,0,0,0,0,0,1,0,0,0,0,0,0,1,0,0,0,1,0,0,0,1,0,0,0,0,0,0,0
1303.2727272727273,466.78252117867703,1252.7727272727273,466.7828017211901,1.0,0.0,99.69787726966034,0.36502012020595664,0.0,0.0,0.00030149667484119025,0.02978278008902534,0.00044847433622158923,0.011261706491729861,0.014246590301616308,0.02857198606295079,0.03856298519616202,0.031737015045596534,0.053821143685607906,0.049541614242455505,0.05109476032790765,0.04417935953691281,0.04393248054977055,0.03778688707758242,0.05438969484200382,0.05011581886428443,0.055239066265261656,0.05014490758529278,0.27676152113887975,0.2183182603020566,0.503336161764019,0.5810047899232977,0.36715047917444,0.2985139975335228,0.07182000497423933,0.062282558601890116,0.05476854426790934,0.048493819207766665,0.09099782310891036,0.07808183319419514,0.40723027656841676,0.4568453045427137,0.4983629264812167,0.5787680113817119,0.4228894234866928,0.475310391689066,0.6546868135699457,0.747655375525717,0.27803753723474334,0.2378853572397891,0.00017239771710053406,0.0003718167867140363,2.9199181025949255,3.7595313815910494,67,174,100,1,0,0,1,1,0,0,1,0,0,0,0,0,0,0,1,0,1,1,0,0,1,0,1,0,0,0,0,0,0
1303.2727272727273,466.78252117867703,1252.8181818181818,466.7543084060225,1.0,0.0,99.69466482749404,0.3677160334263702,0.0,0.0,-0.009202161383706555,0.04364343266452304,0.0008013425344444868,0.03850225689562914,0.005643997388978258,0.04793564680103474,0.05465393093581419,0.06024440437071201,0.08798555897185308,0.11614434323611093,0.1020946616937838,0.16672401436718146,0.06163949483833873,0.06902854824460536,0.09039221534023839,0.12041967322794947,0.10607659057397072,0.1709385237537491,0.36436960533742846,0.40597778302966264,0.511356780832071,0.595232071010152,0.6229983701814732,0.8974033739021329,0.13778909171732334,0.19466054620429932,0.07403109163101175,0.09646357476623622,0.1582933594052628,0.21578716767408543,0.4971295294266604,0.690472540330686,0.7229797040847278,0.9148579407325993,0.5311907259319196,0.6253310978554371,0.9077718660019497,1.098726480990548,1.4135509983124142,2.847719960747541,0.0006875589500667653,0.0017118743968953956,7.051868170127511,16.594509863201232,53,183,110,0,1,0,0,0,0,0,0,0,0,0,0,1,0,0,0,0,0,1,0,0,0,0,0,0,0,0,0,0,0
1303.2727272727273,466.78252117867703,1252.909090909091,466.80177388683524,1.0,0.0,99.72030345006056,0.38610095314477944,0.0,0.0,-0.024593504529078932,0.1064312498714639,0.022955727911917065,0.053526654308157784,0.00017486067694126765,0.056516079397539574,0.1806899807302707,0.17874029348619305,0.28001283984073183,0.17814808658762346,0.3118754330748597,0.28913730424222994,0.19903153571734666,0.1911690874857938,0.2842227380403685,0.1804239974310545,0.3149618396537466,0.2908248316685969,1.2163990840431844,1.0474803536903086,1.7965433410859688,1.001419950246322,2.0681596377537343,1.8533661408703446,0.3823313903288008,0.271447946566885,0.29450157313281217,0.2573076755626066,0.4860831585987683,0.36905756692032304,1.728574809039504,1.5297397446228487,1.8845625618294546,1.195880056148824,1.2351325690767148,0.6875068924834754,2.2610848134327046,1.3651687796049896,1.1144121127871034,2.6722461055909332,0.009647500690036871,0.016534459466254398,75.087590527184,124.70600343082113,70,156,60,0,1,0,0,0,1,0,1,1,1,1,0,0,0,0,1,0,0,0,0,0,0,0,1,1,0,0,1,0,0
1303.2727272727273,466.78252117867703,1252.7727272727273,466.7828017211901,1.0,0.0,99.696843072432,0.3711259456711645,0.0,0.0,-0.010555117824422734,0.0802637013884911,-0.02440572355019225,0.06786598337198589,-0.006752941955208123,0.04654428076156066,0.19455109848704133,0.16691094639707985,0.3199588575035656,0.2797479590078276,0.295599740822457,0.23012741310278528,0.20604771176562692,0.17182934979163686,0.3272174471852233,0.27996416572133875,0.29874682430773436,0.23036258581185598,1.4531677479783747,1.3742544917309125,2.3954029831754506,2.0752310278928663,2.0634357350585804,1.6833622602619158,0.425419848635336,0.34157059674704604,0.2461501337612387,0.20366553434702428,0.49310129178178214,0.3954638719053278,1.6042906876112824,1.3781838450108126,1.3831534832463819,1.262266988413173,0.8070207388190211,0.6285915642736816,1.6135087365660887,1.3951616363688941,0.6276210343171665,1.3054595787444323,0.010858031665723225,0.016793415662027047,50.01432246100432,65.17409869791737,64,172,88,0,0,0,0,0,0,1,0,0,0,0,1,0,0,0,0,0,0,0,0,0,0,0,0,0,0,0,0,0,0
1303.2727272727273,466.78252117867703,1252.7727272727273,466.78280172119014,1.0,0.0,100.15111680599063,0.6221510857684743,0.0,0.0,0.0003176315396566987,0.09831352216668439,0.032729543202467466,0.0728195875567453,-0.008594303992322956,0.0339007635213093,0.1161357624894046,0.12095375126196488,0.17376417931221216,0.18577092931448577,0.16423018610412315,0.21560065835022146,0.13091072046905472,0.14297641820993084,0.17960364330293674,0.1967408552536416,0.16707341619942054,0.2159793129178696,0.8989464482059879,0.7829510301255639,1.462347523761344,1.114956653980785,1.5135873417831882,1.6284268493791327,0.2238807176014369,0.2721412371222078,0.173639802822709,0.16938263628528377,0.29007443659902443,0.31406410393962375,1.40675499636197,1.4180839132004135,1.0256156868218973,1.2724678091374273,0.830093813870726,0.7065533935154829,1.3562711993519871,1.419138568942087,0.4278540539778373,0.5371238196146582,0.0073652308600570685,0.015198875989878992,28.857757128896306,45.71305398276583,72,180,85,1,1,0,0,1,0,1,1,1,0,0,1,1,0,1,0,0,1,1,0,1,0,0,0,1,0,0,0,0,0
1303.2727272727273,466.78252117867703,1252.8181818181818,466.7543084060224,1.0,0.0,99.68986595343637,0.366850047418636,0.0,0.0,-0.02842068892958781,0.04474775314034265,0.009137372845906227,0.03578982807846785,0.008623544098010645,0.05731646826002216,0.11781856151385256,0.09781198767867776,0.21603749771230893,0.24160309454063428,0.17235411628865846,0.13976034016188446,0.12495517801365054,0.10284028552884175,0.21907837638906622,0.24133896325892673,0.1775126894976861,0.14475507184727207,0.8045615157336606,0.6662794301425307,1.304023328628035,1.282442809762551,1.1968979262045956,1.0359730636463702,0.2738268874872871,0.25520579563123824,0.16086273142665067,0.13667513942160606,0.31911932330982684,0.2876413129930745,1.0438403810034853,0.9029758776534441,1.6545694812556855,1.4942553618211027,1.0940835145520607,1.0095596261059685,1.9943306911321153,1.7902263982817959,0.424239526047068,0.5351699569547849,0.0037533924167831067,0.005833351465208156,21.488692500584246,26.9080803895385,65,167,50,0,0,0,0,0,0,0,0,1,0,1,0,0,0,0,0,0,0,0,0,0,0,0,0,0,0,0,0,0,0
1303.2727272727273,466.78252117867703,1252.7727272727273,466.78280172119014,1.0,0.0,100.15957126045123,0.6201443226098671,0.0,0.0,0.0034449101402163344,0.03881156226299933,0.00026199737622001405,0.0366221186063073,0.018540286585156378,0.041314277683265496,0.08349446307720308,0.09644627400383032,0.10761541676131645,0.11627141490850147,0.13489635175863396,0.15387079969250025,0.08803278280864878,0.09994118708205929,0.11022474392555481,0.11932575887102823,0.13796124527195924,0.1575541777873316,0.519165585899674,0.51622272495426,0.7076932035047928,0.6710392685085527,0.820925889642971,0.8558996877802059,0.17734518184801695,0.19294093689522102,0.09813790514799234,0.09793840793755107,0.20446928354128888,0.21456506818456128,0.6434426032451516,0.6775358131729994,0.9099564824289375,1.1197837659128909,0.5876623809803858,0.672880408357831,1.0950661364489063,1.2956918350036257,1.9112540062956531,4.278592583310722,0.0007522332404025612,0.001351302255005934,9.239824270764837,13.658876289515014,42,178,62,0,0,0,0,0,0,0,0,1,0,0,0,0,0,0,0,0,0,0,0,0,0,0,0,0,0,1,1,0,0
1303.2727272727273,466.78252117867703,1252.8181818181818,466.7543084060225,1.0,0.0,99.69118600945231,0.3669673998532095,0.0,0.0,-0.01591645212143202,0.07004596634324227,0.02045340517988132,0.1055467595230961,0.054162685623647275,0.12823461459598387,0.09468993959468208,0.12461704077995764,0.13757304227246758,0.21964534590989823,0.15582183434458474,0.21346575606900345,0.10070552614114024,0.1394428121457347,0.145803522460889,0.23939347515922255,0.17246416664993391,0.24349231570542293,0.7153164815419025,0.9341292187448272,1.0063449752459723,1.4785388308803318,1.1680753573596538,1.7136967025465006,0.20869374052309259,0.3102068290175467,0.14792249576790392,0.18809399280116504,0.26008913610089285,0.35948604044158916,1.1711733586459665,1.7284607750304424,0.8961318566955899,1.2636553286007786,0.5448866732873486,0.6378835231830923,1.070589370792443,1.3980610792389851,0.7806852266240003,1.094895406781168,0.004400361388448946,0.009609152294207786,27.095787901256834,44.72441534436165,56,193,95,1,1,0,1,0,0,0,1,1,0,0,0,1,0,0,0,0,0,0,1,0,0,0,0,1,1,1,1,0,0
1303.2727272727273,466.78252117867703,1252.8181818181818,466.7543084060225,1.0,0.0,99.70742241554626,0.3780196406797758,0.0,0.0,0.001199179869874583,0.0690241531552697,0.015363700857029587,0.028304647622214428,0.009194383174161672,0.022228321611950135,0.051565458119983296,0.06498827619726022,0.06589202043810928,0.0822601184876736,0.07805850397110829,0.08490813242695817,0.06534239210868498,0.08540996153804285,0.06895301974567364,0.08585608805759185,0.0796572019397592,0.0866847556725406,0.2920624099631431,0.3138644420235073,0.45172027103970136,0.5113717759509904,0.5805954143459136,0.710936961378179,0.10199139428495169,0.12508429594960788,0.07392234010285646,0.07762249298249797,0.12889115836846562,0.14449099475758587,0.5131392427623146,0.6248101004090215,0.6230459071169071,0.8502836232330484,0.5190856518343971,0.5973261478846243,0.8258291178029933,1.0264537098443995,0.738797970686942,1.269920806789216,0.0005152410018395679,0.0009734090076485689,5.5375674884513115,7.261262364943226,77,160,72,0,0,0,0,1,0,0,0,0,1,0,0,0,0,1,0,0,0,0,0,0,0,1,0,0,0,1,0,0,0
1303.2727272727273,466.78252117867703,1252.8181818181818,466.7543084060226,1.0,0.0,99.69479618679456,0.3710447430562411,0.0,0.0,0.003917491902438778,0.03797134662464736,-0.00019481581177010468,0.028793631788304297,0.006886039642725276,0.01811979049405262,0.046352529262909115,0.04235610140350355,0.09828880086115852,0.09014345237503904,0.08519573347698654,0.08008939563839852,0.05336372060865766,0.05015571678093107,0.10091749046135266,0.09159081983699574,0.08608947984472047,0.08135360086970712,0.37452506534384344,0.45941223961698013,0.7154306957720142,0.6342238554857291,0.6411170398034447,0.705867664933597,0.11830770887202861,0.10314448535457617,0.08318237935278519,0.08001360478239497,0.1452850368422017,0.12971866331310583,0.53376081605986,0.5520346747912886,0.8360986748959753,0.8157584341026414,0.6273247968097594,0.5718266848828317,1.052581032470976,0.9877501436485236,0.2930233814849417,0.5117688338344777,0.00030078214459170746,0.0004558760472911458,7.115169642919747,11.833984844330752,51,188,90,0,0,1,0,0,0,0,1,1,1,0,0,0,0,1,1,0,0,0,0,0,0,0,0,0,0,0,1,0,0
1303.2727272727273,466.78252117867703,1252.7727272727273,466.7828017211901,1.0,0.0,99.69901611242022,0.3583860422239524,0.0,0.0,-0.0016779732608742223,0.015022668905472323,0.004540235164499396,0.009605074983919342,0.014365049136409937,0.028988830644541976,0.02672372447396092,0.020680909908154896,0.03936214410057514,0.032329689671395344,0.03937491721941874,0.0347812100572529,0.028879442388505448,0.023012494876296894,0.040172739221842974,0.032997333026079635,0.04394439912990782,0.043180149376697646,0.18635017717167557,0.1470573329751068,0.31119932253983634,0.2706064193765973,0.2743835786041015,0.23337822642747053,0.05621206509193772,0.04824815255988826,0.03656940293200788,0.03215214338820172,0.06799327059246023,0.056808421658927834,0.23370214289510258,0.20588425360341647,0.3937439681475025,0.45986385664930834,0.3096056820815384,0.3511380302250143,0.5106031568221524,0.5694291629476123,0.30775428073127215,0.2363255256517863,8.948175600353932e-05,0.00011776043392144403,1.1477328027987392,1.439532501844553,68,185,88,1,1,1,0,1,1,1,1,1,1,0,1,1,1,1,1,0,1,1,0,0,1,1,0,1,1,1,1,1,0
1303.2727272727273,466.78252117867703,1252.8181818181818,466.8587668932738,1.0,0.0,99.68385078084025,0.36521801547398414,0.0,0.0,0.007151109812138737,0.1680211644140923,0.027636665601128874,0.056696685472884686,0.00891651522149773,0.04587869934893188,0.11142255642725622,0.15498337081468774,0.2024026495466666,0.3890615287197051,0.13797299560931595,0.25072133181498846,0.1383187803790512,0.2126728505523983,0.20683133988558405,0.3915171166537503,0.14149702020823132,0.25284905087148557,0.9456197321023503,1.3486401894643485,1.810599190496044,2.85608163762263,1.1555088687626225,1.8198847732327736,0.21135754135841395,0.3772264984625815,0.21173505212301072,0.33523096420624954,0.30190682623124787,0.5027864242508996,1.762739064393193,2.758871753899112,0.9059252845671744,1.6409846717131176,0.6984125524721364,0.9155472152791536,1.1735334717288397,1.8594919541276125,0.5624851917283443,1.0624464650516425,0.018105032383607528,0.05118141263417435,74.42767730950965,171.30707953001115,70,182,82,0,1,0,0,0,0,1,1,0,1,0,0,0,0,0,0,0,0,1,1,0,1,0,0,0,0,0,0,0,0
1303.2727272727273,466.78252117867703,1252.8181818181818,466.7543084060225,1.0,0.0,99.70815653164063,0.37145849481310006,0.0,0.0,-0.015665448177466065,0.07776304648879685,0.01986093852336829,0.05506097037291685,-0.011115080015730215,0.03458440712985517,0.09476026588467899,0.10050121814713216,0.13416851202885327,0.14658888952289728,0.12920041274127692,0.16134047328587378,0.10697218096782671,0.11749015232604669,0.13950269218315944,0.15284891697949457,0.13082195881612158,0.16392074411359925,0.6994333091420014,0.6895277057806902,1.1060963996391766,1.1087485580636636,1.0047202961282962,1.1900746917740768,0.17023767526634168,0.20154470905393868,0.13763703669290916,0.15348909976184738,0.222848321861495,0.24963085017446585,1.045274831881784,1.2005927028464385,1.0717967587519832,1.3694916762164209,0.747719366465163,0.7165653906951162,1.332337510817949,1.5222902061113166,1.1146326670336217,1.9351530482605925,0.0042329153666296184,0.008343387247337068,20.35070758711166,33.33277024380245,70,169,61,0,1,0,0,0,0,0,1,1,0,1,0,1,0,0,0,0,0,0,0,0,0,0,0,0,0,0,1,0,0
1303.2727272727273,466.78252117867703,1252.7727272727273,466.7828017211901,1.0,0.0,99.69606530293822,0.36392600674450626,0.0,0.0,-0.008824374939933259,0.05225884695959778,0.004628783330521338,0.027473446792307038,-0.003130233768227465,0.03705275533594679,0.05456388133243957,0.05277212829357985,0.08187614593631569,0.10534407807632734,0.07505211315111068,0.08092951871598518,0.06404359745676776,0.06643435646805376,0.08394607895202857,0.1072214819618245,0.07838944182344625,0.08592771338011365,0.3914664320101178,0.3819197336641917,0.6272638506222143,0.7202552966313984,0.6098036370124184,0.63629557121926,0.10634598223928386,0.1317293427164196,0.07855899430516709,0.07587466381892903,0.13522474466494705,0.14917770947719147,0.5771782563024117,0.6769679582722342,0.6173067525634661,0.8299172876343394,0.5542242504668762,0.6124504267211244,0.8463256689743819,1.0167460605361778,0.5214715403924672,1.0991204602224813,0.0007708850832450542,0.001374958281306828,5.700879047848823,7.860095509192986,72,183,97,0,0,0,0,1,0,0,1,0,1,0,0,0,0,1,1,0,0,0,1,0,0,0,0,0,0,1,1,0,0
1303.2727272727273,466.78252117867703,1252.7727272727273,466.7828017211901,1.0,0.0,99.70558054236294,0.37657563191872756,0.0,0.0,-0.008884299304314515,0.05487922837863501,0.004490071420870785,0.02321574782892975,0.012311987995487467,0.041776391470589314,0.06826883233085018,0.056514126656930064,0.09814289534476055,0.099183372112099,0.09003444782014539,0.0896698057259324,0.07813400089363977,0.06904322857782667,0.09954643094942277,0.10043081436319881,0.09538982337946868,0.09427394134305102,0.5380205652181335,0.6245106502723656,0.8455127349855233,1.0706919244051276,0.8300658183520949,1.3329925753944847,0.12083224738175598,0.12678486015152107,0.09866511445772609,0.09220145651033847,0.16254776821569014,0.1495675592109888,0.8112740111424419,1.411630993569819,0.7193142844291666,0.9252660039048866,0.5496965164967278,0.5543738272027536,0.9347060408212385,1.0517295590668554,0.28960131170624265,0.39877338921857486,0.001038045196356356,0.0027668099155954383,8.727346600032924,14.065856577732598,51,188,120,1,1,1,1,1,0,1,1,1,1,1,1,1,1,1,1,1,1,1,1,0,0,0,1,1,1,0,0,0,0
1303.2727272727273,466.78252117867703,1252.9545454545455,466.6690963140215,1.0,0.0,99.69496631524781,0.3646350912202736,0.0,0.0,-0.05774390196617251,0.10336065364891679,0.00027254314982853715,0.02824856111123728,0.024070419773787013,0.044749256970323247,0.08820658712597346,0.08900651634215301,0.1283473547632488,0.16168738338721236,0.11557572001047554,0.12362475774537718,0.11253886019409012,0.13025009413487174,0.12963455066235666,0.16293699312751053,0.1197141480205023,0.12977852025823058,0.5912321851918558,0.5780241135631018,1.0070375541700924,1.059239712878879,0.9745134517594498,0.9429207063391061,0.16065867196139083,0.21265448411094287,0.12908068582635404,0.12868874523589685,0.21213845031693354,0.24310015460901985,0.895849003771201,0.9067740068134904,1.0202257239061923,1.428636391747015,0.8535673507030417,0.9104252522344641,1.3646241504070102,1.6646510744357719,0.48516483435522956,0.5996286398168202,0.002510617629310514,0.004857372754091197,15.832891256424848,21.83185665256425,56,183,84,0,0,0,0,0,0,0,0,0,0,0,0,0,0,0,0,0,0,0,0,0,0,0,0,0,0,0,0,0,0
1303.2727272727273,466.78252117867703,1252.7727272727273,466.7828017211901,1.0,0.0,99.69593637137869,0.3647449054910398,0.0,0.0,-0.0003162982084995591,0.027674060816334892,0.004953350593709601,0.025695840458606137,0.008897571282164101,0.024057144767146158,0.04382690347082588,0.04572566337412263,0.05117216726073048,0.06579371019417452,0.06383146479920511,0.07150032990759907,0.04786808945536294,0.04964282317262799,0.0532635150244179,0.06912904061805049,0.065985762217669,0.07396891269196766,0.2796564763356647,0.2877892941724767,0.36587478726075573,0.4071433437900028,0.4772367896615403,0.5159320644660569,0.0816509472170795,0.09564067029787135,0.05595683121938131,0.05695206524635751,0.10006831402590154,0.11026399578421363,0.3768256412377324,0.44321472199777895,0.5377174289135269,0.7576384031613301,0.48956055535150544,0.6491780260936736,0.7322125646852626,0.9935209226229055,0.24610351245788004,0.25137230625931395,0.00039173109898233435,0.001004717446362019,3.0897092690643557,5.0043474541321675,56,203,140,1,1,0,0,1,0,1,1,1,1,1,0,1,0,1,1,0,1,1,0,0,1,1,0,0,1,1,1,0,0
1303.2727272727273,466.78252117867703,1252.8181818181818,466.7543084060226,1.0,0.0,99.69559062555032,0.36148398567786066,0.0,0.0,-0.0024677296521678225,0.03326803102041477,0.005824116810677609,0.017632325384183998,0.0038442824741310596,0.014236953923726703,0.03854647278134037,0.044984213964097575,0.06681497910920418,0.1063532902204907,0.05645646491621104,0.08658710343214152,0.043058160477822335,0.05241546639480076,0.0690799963006913,0.10639027474640815,0.05784710417367433,0.08682091134530662,0.23110499256913844,0.2419778570061827,0.41220264659548816,0.6475636353208551,0.3916039065696701,0.5320364675146879,0.08803657468941063,0.12748793517853138,0.05559626914247124,0.06669605526837606,0.10568343643705677,0.14265520943376506,0.41528145744602474,0.5959658396429053,0.46590942527967116,0.7359141679337778,0.35202030178084187,0.3977445879301358,0.5972488589280354,0.8264442704306795,0.7192370941950631,1.3859645107247192,0.0006012011880456218,0.0012818539814894868,3.6338217998003146,6.38270339919524,63,189,95,0,0,0,0,0,0,0,0,0,0,0,0,0,0,0,0,0,0,1,0,0,0,0,0,1,0,0,0,0,0
1303.2727272727273,466.78252117867703,1252.7727272727273,466.7828017211901,1.0,0.0,99.6941496449752,0.3633761928785366,0.0,0.0,-0.0017583534541819954,0.04803450963530284,0.007601517865921398,0.016594789133835417,0.0008124752159382136,0.01308166662502234,0.05420910008642295,0.05664675650381718,0.0824075446692164,0.09608980340104993,0.08754503215239845,0.10059389577067183,0.06208877345516594,0.06747567096145907,0.08332065830678256,0.09692208492892382,0.08813285215840988,0.10081776147305695,0.4377366618930207,0.5321356429379146,0.6131529189451992,0.6967106447933564,0.6373464288948756,0.7678329343834963,0.11436174668520958,0.13068810546251475,0.07436970973841471,0.08365371818777707,0.13784410709233097,0.15379874375526478,0.5521053366900602,0.7087526571677207,0.7783027137832362,0.9878319863956978,0.5295821435410206,0.5786467352936787,0.9512625670863565,1.1359668795674749,0.3813953946047219,0.6705268166868906,0.0014163313895948259,0.0026713244494192693,5.981729833266912,10.232940966448181,51,170,100,1,1,0,0,1,0,1,1,0,0,0,0,1,0,1,1,0,0,0,1,1,0,0,1,1,0,0,0,0,0
1303.2727272727273,466.78252117867703,1252.7727272727273,466.7828017211901,1.0,0.0,99.69956204791188,0.3594593854044465,0.0,0.0,0.011254640699570955,0.09990867291764213,0.009779208339891042,0.03733671461175887,-0.01486032188249108,0.059618369399395806,0.11593829407293374,0.12229246712096709,0.1633487268158575,0.21653965952017934,0.14216517261398248,0.16344289518729152,0.1333657379905209,0.14313828113843458,0.16593591515717307,0.21774974782414272,0.14757579129364481,0.16972907848611068,0.6977004101976614,0.5857154433108922,1.0766583991741527,1.0497660883383841,0.9459141208292348,0.941000121567125,0.22184801305144977,0.2783797816109962,0.13612924959723804,0.13629402793500392,0.26552909233557487,0.3051939647751395,0.8273261335811373,0.7614661493948826,1.1344964125897123,1.3363556790088564,0.8655321409877246,0.8685984998115849,1.4469355185210404,1.5743601229528097,0.2976378487413245,0.30584058931146013,0.0011015539142886777,0.0019877656889656058,17.94084531634254,26.582792823237234,57,164,73,0,1,0,0,0,0,0,1,0,0,0,1,0,0,1,1,0,0,0,0,0,0,1,0,0,0,0,0,0,1
1303.2727272727273,466.78252117867703,1252.7727272727273,466.7828017211901,1.0,0.0,99.69371249923353,0.36246819872674313,0.0,0.0,-0.0060660088012113485,0.04118545970519815,0.0017244000326839982,0.0237115473411976,0.00998132077707887,0.017845700568942958,0.046783503073002025,0.05110310832813525,0.07513647864183752,0.06674927535612932,0.059156803584521,0.05264598935885593,0.052158095352533844,0.06151599276637895,0.07663279123697499,0.06908195027222055,0.06057999559909308,0.054857859235885056,0.37598225263413787,0.3572913553610307,0.6553996426076926,0.5448884614601551,0.4739770838467882,0.3943544131820812,0.09217697548772573,0.0894874599940009,0.0635067797204334,0.05732497233911993,0.11254475284610929,0.10556219796537648,0.4391545977854818,0.37989895750051966,0.5389534396554486,0.5535775436782472,0.42442318089851905,0.40425971684648726,0.6920935627546896,0.6787688260584879,0.2458834493307375,0.3305351925122214,0.0005380454823544722,0.0006844135420456163,3.5390976413213733,4.949631384125509,77,162,65,0,0,1,0,1,0,1,1,0,1,0,0,0,0,0,0,0,0,0,0,0,0,0,1,0,0,0,1,0,0
1303.2727272727273,466.78252117867703,1252.8636363636363,466.8302735781006,1.0,0.0,99.70147929612102,0.3640981869373833,0.0,0.0,0.02688435300279398,0.052535718173958586,0.0007723106846928561,0.01631746984182581,0.00735666713175634,0.024374554920507028,0.04312832467254719,0.03910170139157356,0.06713882631194566,0.06946493369651952,0.061706930501955755,0.055450399629496216,0.055210380206531635,0.06162834676534745,0.06835069601907534,0.07007534484216603,0.0641412923768032,0.058290364117814596,0.2997605929800832,0.2662904331148344,0.453423522544163,0.39415507996530075,0.4466437535321584,0.3856482645678086,0.09423709293806595,0.09706282939468419,0.05814473904606326,0.04736265033900977,0.11207082917148355,0.10651784787702674,0.3735013829560864,0.3156658806662855,0.6860041737391197,0.853060703153013,0.5534389797488193,0.6332028239386268,0.8901486305232179,1.054378476090608,0.33224169879248144,0.38724437856716415,0.00030726716698173986,0.0004515093864602576,2.8912259076411924,3.3805090804650875,59,170,60,0,0,0,0,1,0,1,0,0,0,0,0,1,0,1,1,1,1,1,1,0,0,1,0,0,1,0,0,0,0
1303.2727272727273,466.78252117867703,1252.7727272727273,466.78280172119014,1.0,0.0,100.15903624620628,0.6208564607964142,0.0,0.0,-0.00939008264265715,0.038849100115855066,0.012716249849730415,0.020306919319924593,0.004186613095629668,0.02074288738287944,0.06130229621213186,0.06779988932514011,0.10972432825109114,0.12257281808642613,0.07746160703933057,0.10035403816378938,0.06562578766405111,0.07493217851263911,0.11123634618426329,0.12340182170558135,0.07917586567407159,0.10110175330861786,0.4295922763090795,0.436399632848533,0.7063048628916242,0.621489856246579,0.5103465512013936,0.6219710273474433,0.13729629220329265,0.15428724169901617,0.07864735268417726,0.07131351997652291,0.15993916076137926,0.16824877323824255,0.5149522345912878,0.5034843925535553,0.8338913583686524,0.9832053055863208,0.5775028736339473,0.5587154904819615,1.026632062601198,1.1188844964972744,2.0221443848739873,4.766173830430108,0.0005041682100437445,0.0008353605290450785,5.518217958756389,7.934993036193757,42,174,72,0,0,0,1,0,0,0,1,0,0,1,1,1,0,1,0,0,1,0,0,1,0,1,1,1,1,1,0,0,0
1303.2727272727273,466.78252117867703,1252.8181818181818,466.7543084060225,1.0,0.0,99.71654667780572,0.38444266103221036,0.0,0.0,2.1775051104781716e-05,0.04371191448412462,0.00490711150888565,0.011510997622202668,0.0034358435599295134,0.01248937923278389,0.036194152719548366,0.03903988546631447,0.041699563642660316,0.051815141119656204,0.05131373981385865,0.06264607326944581,0.044225230741577845,0.052491048362423715,0.04276305901915714,0.05238203664777298,0.05249712616598496,0.06290772819696937,0.2796326659006202,0.33875069677649783,0.3480086577239624,0.42272669555351533,0.46529279417734737,0.6273936846389815,0.06348142239041578,0.07676296422383669,0.05046284979940456,0.059436823571506245,0.0823133708599486,0.09597076405259818,0.4292568596669877,0.6000509947482108,0.44398325316370213,0.6820113678682478,0.39053371781459156,0.5366474568246351,0.6009784005101602,0.8605716884967796,0.44758035082606257,0.6382478561573128,0.0006175430029455334,0.001493638111548399,2.9246913629431437,5.171363275272739,80,177,92,0,0,1,0,0,0,0,1,1,0,0,0,0,0,0,0,0,0,0,0,0,0,0,0,0,0,0,0,0,0
1303.2727272727273,466.78252117867703,1252.7727272727273,466.78280172119014,1.0,0.0,100.14983645126918,0.6218814130332717,0.0,0.0,-0.02183253829691313,0.05108626418972458,0.006521011854738351,0.02660381712522573,0.021369763891795263,0.04555521128965673,0.06154778921869886,0.05910902761649138,0.1537652735924327,0.09286559271810021,0.10045072743051495,0.08874004179913904,0.07175754899370534,0.07190119979868043,0.1550024703611288,0.09457240402929015,0.10537526688183348,0.09668618375643319,0.40464598000171575,0.3424391715100228,0.9957793651915693,0.5348057278006946,0.6202060772991995,0.579195565049317,0.18350075912351924,0.12675939965421026,0.10145578033189671,0.059542407810917866,0.21044993614494753,0.13878276437500092,0.6159398353754341,0.3439352539738957,1.1550196415532579,0.6519826316674923,0.7294773971903354,0.4375193981990479,1.3713140218296038,0.7751300571382004,2.458233993339214,3.899268590809192,0.0015151700495635641,0.0018426591315410168,7.485820591369822,8.66162587460326,57,172,100,0,0,0,0,0,0,0,0,1,0,0,0,0,0,0,0,0,0,0,1,0,0,1,0,0,1,0,0,0,0
1303.2727272727273,466.78252117867703,1252.7727272727273,466.7828017211901,1.0,0.0,99.69000058092256,0.3629887971007989,0.0,0.0,-0.0008787590311694592,0.05657601969471758,0.004357938982415647,0.02430996973845158,0.013587577363784022,0.02431902192241186,0.07076214957004016,0.06620996807801097,0.10891614770541805,0.12726746896945912,0.10221464224098398,0.1050169141583168,0.08002207962753426,0.078185944843606,0.11111071664408599,0.12756699188715892,0.10403592508400043,0.10675989300522094,0.5643415084112614,0.5812365815153525,1.107156510464503,1.472448845930572,0.8912898748524167,0.9209219044020852,0.13504533320684092,0.1437458857676409,0.10833590563594421,0.11281019640825496,0.17759872075473274,0.17810558343948715,0.9600885486190767,1.17605813067276,0.6595125648679641,0.8208575600842392,0.53355246534344,0.578407410625396,0.8605688335879335,0.9928608152625391,0.45526916896672787,0.6158043610382905,0.002233713562074326,0.003882294933011231,11.905462176892117,16.07363454448932,61,182,95,0,1,0,0,0,0,1,1,1,0,0,0,0,1,0,0,0,1,0,0,1,0,0,1,1,0,0,0,0,0
1303.2727272727273,466.78252117867703,1252.7727272727273,466.7828017211901,1.0,0.0,99.70069569602286,0.3675670975877942,0.0,0.0,-0.006839295899580963,0.1021573626788392,0.0032050960727738765,0.03883169517708401,0.026056678258702507,0.0642586593843238,0.07926744297630794,0.0906358690705739,0.13742224139283216,0.2141456118609915,0.15327067137138403,0.21284328352350734,0.09602267253180101,0.12493208145057405,0.14064909288877525,0.21533618220289877,0.15875600583443694,0.2197224508909286,0.5380712632600949,0.5719605678331401,0.8264566441718848,1.0835707859360704,0.9890823172839581,1.337286076827795,0.20543168356475547,0.29000879464993645,0.12287693390976343,0.15148600896987752,0.24266801093636528,0.3245780907800658,0.8436994101435201,1.0921131633353727,0.9160970776772686,1.3435268416823594,0.5862192644719915,0.7132103615252591,1.1025490824577462,1.509488510833009,0.3937682642824116,0.3896337902262883,0.002693577193696761,0.005859381990572306,18.046707188549448,29.824615470547776,77,184,83,0,0,0,0,1,0,0,0,1,0,0,0,0,0,0,0,0,0,0,0,0,0,0,0,1,0,0,0,0,0
1303.2727272727273,466.78252117867703,1252.7727272727273,466.7828017211901,1.0,0.0,99.68297529305761,0.3746264743725064,0.0,0.0,0.005723049566944982,0.04065793409376047,-0.0029930265656565587,0.04147750068178726,-0.0033648121733986084,0.029895251682957237,0.07445367857333159,0.097413532110925,0.1425699459856144,0.11262867686136091,0.11045166647489951,0.14999823344612798,0.08087607565276522,0.1005790670207296,0.14518935271218636,0.11659772609013763,0.11201690948690746,0.15167270828136903,0.7377286434663358,1.3173489239118867,0.9684133564812516,0.8287037550411672,0.874238486442374,1.282050142905298,0.16972659359809503,0.15353493647477542,0.1223782363657996,0.1392496447839213,0.2110852672225176,0.2052279397883596,0.8621983312353184,1.1851112577728844,0.9217683092838288,0.8175113576603344,0.6167064558918864,0.5312288755539054,1.114770284602876,0.9677460439625937,3.2732714479563914,5.179198040611852,0.003577911195130049,0.010578885009441817,17.559833612022953,42.69525342659953,74,200,100,0,0,1,0,0,0,1,1,1,0,0,1,1,0,1,1,0,0,0,0,0,0,1,1,1,0,0,1,0,0
